subject;age;trial_number;condition;order;image_object_id;image_landscape_id;encoding_phase;rating;recall_phase;phase;score;rt
sub-01;28;1;Distraction;D-R;Fourchette;mars-02;E1;1.0;R1;initial;1.0;3.66080460000012
sub-01;28;2;Distraction;D-R;Lion;Mon09;E1;1.0;R1;initial;1.0;3.383935500000007
sub-01;28;3;Distraction;D-R;Tracteur;Nei01;E1;2.0;R1;initial;1.0;2.6711412999993627
sub-01;28;4;Distraction;D-R;Moto;Des05;E1;2.0;R1;initial;1.0;2.0715354999993
sub-01;28;5;Distraction;D-R;Broccoli;Mon10;E1;1.0;R1;initial;0.0;6.863478799999939
sub-01;28;6;Distraction;D-R;Balai;Nei03;E1;0.0;R1;initial;1.0;1.9513988000007885
sub-01;28;7;Distraction;D-R;Trompette;Mon04;E1;1.0;R1;initial;0.0;13.881561000000149
sub-01;28;8;Distraction;D-R;Violon;Mon12;E1;2.0;R1;initial;0.0;4.143176499999754
sub-01;28;9;Distraction;D-R;Papillon;Eau05;E1;2.0;R1;initial;1.0;2.535602800000561
sub-01;28;10;Distraction;D-R;Guitare;For06;E1;2.0;R1;initial;1.0;2.8422536999996737
sub-01;28;11;Distraction;D-R;Prise;mars-01;E1;0.0;R1;initial;1.0;2.015887700000349
sub-01;28;12;Distraction;D-R;Poire;Mon02;E1;1.0;R1;initial;0.0;4.084592300000622
sub-01;28;13;Distraction;D-R;Citron;For03;E1;1.0;R1;initial;0.0;3.863233099999889
sub-01;28;14;Distraction;D-R;Canard;For04;E1;2.0;R1;initial;0.0;7.311543800000436
sub-01;28;15;Distraction;D-R;Marteau;Mon01;E1;0.0;R1;initial;0.0;2.109106399999291
sub-01;28;16;Distraction;D-R;Pomme;Des04;E1;1.0;R1;initial;0.0;7.999068299999635
sub-01;28;17;Distraction;D-R;Girafe;Mon14;E1;1.0;R1;initial;1.0;2.500847799999974
sub-01;28;18;Distraction;D-R;Cactus;Des01;E1;3.0;R1;initial;1.0;2.096944799999619
sub-01;28;19;Distraction;D-R;Tasse;Urb02;E1;3.0;R1;initial;1.0;1.6954526999998052
sub-01;28;20;Distraction;D-R;Sac;Mon11;E1;3.0;R1;initial;1.0;1.5522899000006871
sub-01;28;21;Distraction;D-R;Rhinoceros;Cam03;E1;0.0;R1;initial;1.0;5.469265300000188
sub-01;28;22;Distraction;D-R;Clef;Eau06;E1;2.0;R1;initial;1.0;1.3698194000007788
sub-01;28;23;Distraction;D-R;Seau;Nei02;E1;2.0;R1;initial;1.0;1.2824658999998064
sub-01;28;24;Distraction;D-R;Casquette;Mon05;E1;3.0;R1;initial;1.0;3.331801400000586
sub-01;28;25;Distraction;D-R;Fromage;Cam02;E1;1.0;R1;initial;0.0;3.1987622000006013
sub-01;28;26;Rest;D-R;Crayon;Urb04;E2;2.0;R2;initial;1.0;2.408858199999486
sub-01;28;27;Rest;D-R;Ciseaux;Esp02;E2;0.0;R2;initial;1.0;2.2464930999994976
sub-01;28;28;Rest;D-R;Tortue;Des03;E2;3.0;R2;initial;1.0;2.4707726000006005
sub-01;28;29;Rest;D-R;Chien;Urb01;E2;3.0;R2;initial;1.0;1.1102898999997706
sub-01;28;30;Rest;D-R;Voiture;Urb06;E2;3.0;R2;initial;1.0;2.1575425000000905
sub-01;28;31;Rest;D-R;Cheval;Urb10;E2;1.0;R2;initial;1.0;1.9252705999997488
sub-01;28;32;Rest;D-R;Stylo;Urb08;E2;2.0;R2;initial;0.0;2.2187764000000243
sub-01;28;33;Rest;D-R;Chapeau;Urb03;E2;3.0;R2;initial;1.0;1.907174699999814
sub-01;28;34;Rest;D-R;Piano;Urb07;E2;0.0;R2;initial;1.0;1.6395461000001887
sub-01;28;35;Rest;D-R;Chat;Esp05;E2;0.0;R2;initial;1.0;1.5719780999997963
sub-01;28;36;Rest;D-R;Bonnet;Esp03;E2;3.0;R2;initial;1.0;2.0783447000003434
sub-01;28;37;Rest;D-R;Bougie;For01;E2;1.0;R2;initial;1.0;1.854258200000004
sub-01;28;38;Rest;D-R;Cerise;Mon03;E2;1.0;R2;initial;0.0;1.403409799999281
sub-01;28;39;Rest;D-R;Carotte;Urb11;E2;1.0;R2;initial;1.0;3.064965699999448
sub-01;28;40;Rest;D-R;Dauphin;Eau04;E2;3.0;R2;initial;1.0;1.9610311000005824
sub-01;28;41;Rest;D-R;Ampoule;Mon06;E2;1.0;R2;initial;1.0;6.142761999999493
sub-01;28;42;Rest;D-R;Table;For05;E2;0.0;R2;initial;1.0;1.6484368000001268
sub-01;28;43;Rest;D-R;Montre;Urb09;E2;3.0;R2;initial;1.0;1.8081534999992075
sub-01;28;44;Rest;D-R;Fraise;mars-04;E2;0.0;R2;initial;1.0;1.5994596999998976
sub-01;28;45;Rest;D-R;Lunettes;mars-03;E2;1.0;R2;initial;1.0;5.38117179999972
sub-01;28;46;Rest;D-R;Pain;Des02;E2;1.0;R2;initial;1.0;2.230607499999678
sub-01;28;47;Rest;D-R;Elephant;Eau02;E2;0.0;R2;initial;1.0;2.5880664999995133
sub-01;28;48;Rest;D-R;Tournevis;Eau03;E2;1.0;R2;initial;0.0;5.002126999999746
sub-01;28;49;Rest;D-R;Pinceau;Mon07;E2;2.0;R2;initial;1.0;2.519461899999442
sub-01;28;50;Rest;D-R;Velo;Mon13;E2;0.0;R2;initial;1.0;1.654125600000043
sub-01;28;10bis;Distraction;D-R;Guitare;For06;E1;2.0;RF;final;1.0;2.5920877999997174
sub-01;28;11bis;Distraction;D-R;Prise;mars-01;E1;0.0;RF;final;1.0;1.906270899999072
sub-01;28;12bis;Distraction;D-R;Poire;Mon02;E1;1.0;RF;final;0.0;1.2376368999994156
sub-01;28;13bis;Distraction;D-R;Citron;For03;E1;1.0;RF;final;1.0;1.7740250999995624
sub-01;28;14bis;Distraction;D-R;Canard;For04;E1;2.0;RF;final;0.0;1.229159099999379
sub-01;28;15bis;Distraction;D-R;Marteau;Mon01;E1;0.0;RF;final;0.0;0.6986030000007304
sub-01;28;16bis;Distraction;D-R;Pomme;Des04;E1;1.0;RF;final;0.0;1.8553666999996492
sub-01;28;17bis;Distraction;D-R;Girafe;Mon14;E1;1.0;RF;final;1.0;3.121498199998314
sub-01;28;18bis;Distraction;D-R;Cactus;Des01;E1;3.0;RF;final;1.0;1.842710299999453
sub-01;28;19bis;Distraction;D-R;Tasse;Urb02;E1;3.0;RF;final;1.0;1.4507039999989502
sub-01;28;1bis;Distraction;D-R;Fourchette;mars-02;E1;1.0;RF;final;1.0;3.2110376000000542
sub-01;28;20bis;Distraction;D-R;Sac;Mon11;E1;3.0;RF;final;1.0;0.8560386999997718
sub-01;28;21bis;Distraction;D-R;Rhinoceros;Cam03;E1;0.0;RF;final;1.0;3.665658199999598
sub-01;28;22bis;Distraction;D-R;Clef;Eau06;E1;2.0;RF;final;1.0;2.042433800001163
sub-01;28;23bis;Distraction;D-R;Seau;Nei02;E1;2.0;RF;final;1.0;1.2135526000001846
sub-01;28;24bis;Distraction;D-R;Casquette;Mon05;E1;3.0;RF;final;1.0;2.4376673999995546
sub-01;28;25bis;Distraction;D-R;Fromage;Cam02;E1;1.0;RF;final;1.0;2.0280619000004663
sub-01;28;26bis;Rest;D-R;Crayon;Urb04;E2;2.0;RF;final;1.0;4.68732799999998
sub-01;28;27bis;Rest;D-R;Ciseaux;Esp02;E2;0.0;RF;final;1.0;2.379236300001139
sub-01;28;28bis;Rest;D-R;Tortue;Des03;E2;3.0;RF;final;1.0;3.5931458999984898
sub-01;28;29bis;Rest;D-R;Chien;Urb01;E2;3.0;RF;final;1.0;1.5833560000010038
sub-01;28;2bis;Distraction;D-R;Lion;Mon09;E1;1.0;RF;final;1.0;1.7906695999990916
sub-01;28;30bis;Rest;D-R;Voiture;Urb06;E2;3.0;RF;final;1.0;2.9445166000004974
sub-01;28;31bis;Rest;D-R;Cheval;Urb10;E2;1.0;RF;final;1.0;2.367188400001396
sub-01;28;32bis;Rest;D-R;Stylo;Urb08;E2;2.0;RF;final;1.0;1.7212171999999557
sub-01;28;33bis;Rest;D-R;Chapeau;Urb03;E2;3.0;RF;final;1.0;2.468667600000117
sub-01;28;34bis;Rest;D-R;Piano;Urb07;E2;0.0;RF;final;1.0;1.7818451000002824
sub-01;28;35bis;Rest;D-R;Chat;Esp05;E2;0.0;RF;final;1.0;1.5814309999987015
sub-01;28;36bis;Rest;D-R;Bonnet;Esp03;E2;3.0;RF;final;1.0;1.565530300000319
sub-01;28;37bis;Rest;D-R;Bougie;For01;E2;1.0;RF;final;1.0;1.5419800000017858
sub-01;28;38bis;Rest;D-R;Cerise;Mon03;E2;1.0;RF;final;0.0;0.516301999999996
sub-01;28;39bis;Rest;D-R;Carotte;Urb11;E2;1.0;RF;final;1.0;2.035933400000431
sub-01;28;3bis;Distraction;D-R;Tracteur;Nei01;E1;2.0;RF;final;1.0;2.1199298999999883
sub-01;28;40bis;Rest;D-R;Dauphin;Eau04;E2;3.0;RF;final;1.0;2.4671398000009503
sub-01;28;41bis;Rest;D-R;Ampoule;Mon06;E2;1.0;RF;final;1.0;2.2218139999986306
sub-01;28;42bis;Rest;D-R;Table;For05;E2;0.0;RF;final;1.0;1.670781500000885
sub-01;28;43bis;Rest;D-R;Montre;Urb09;E2;3.0;RF;final;1.0;1.8464499000001524
sub-01;28;44bis;Rest;D-R;Fraise;mars-04;E2;0.0;RF;final;1.0;1.7436930000003483
sub-01;28;45bis;Rest;D-R;Lunettes;mars-03;E2;1.0;RF;final;1.0;3.1317030000009254
sub-01;28;46bis;Rest;D-R;Pain;Des02;E2;1.0;RF;final;1.0;1.260288399998899
sub-01;28;47bis;Rest;D-R;Elephant;Eau02;E2;0.0;RF;final;1.0;2.410568100000092
sub-01;28;48bis;Rest;D-R;Tournevis;Eau03;E2;1.0;RF;final;0.0;1.190277400000923
sub-01;28;49bis;Rest;D-R;Pinceau;Mon07;E2;2.0;RF;final;1.0;3.6726186999985657
sub-01;28;4bis;Distraction;D-R;Moto;Des05;E1;2.0;RF;final;1.0;0.9801333999985218
sub-01;28;50bis;Rest;D-R;Velo;Mon13;E2;0.0;RF;final;1.0;1.7265919999990729
sub-01;28;5bis;Distraction;D-R;Broccoli;Mon10;E1;1.0;RF;final;0.0;3.4557844000009936
sub-01;28;6bis;Distraction;D-R;Balai;Nei03;E1;0.0;RF;final;1.0;1.5521623999993608
sub-01;28;7bis;Distraction;D-R;Trompette;Mon04;E1;1.0;RF;final;0.0;5.1108124000002135
sub-01;28;8bis;Distraction;D-R;Violon;Mon12;E1;2.0;RF;final;0.0;3.0181689000000915
sub-01;28;9bis;Distraction;D-R;Papillon;Eau05;E1;2.0;RF;final;0.0;0.678157000000283
sub-07;28;1;Rest;R-D;Fromage;Urb08;E1;0.0;R1;initial;0.0;4.014635399999861
sub-07;28;2;Rest;R-D;Citron;Eau03;E1;0.0;R1;initial;0.0;10.316423199999916
sub-07;28;3;Rest;R-D;Poire;Esp05;E1;0.0;R1;initial;0.0;9.440241299999798
sub-07;28;4;Rest;R-D;Balai;Des04;E1;0.0;R1;initial;0.0;12.825089899999512
sub-07;28;5;Rest;R-D;Carotte;Eau04;E1;0.0;R1;initial;1.0;3.652804999999717
sub-07;28;6;Rest;R-D;Fraise;Mon09;E1;0.0;R1;initial;0.0;14.387147399999776
sub-07;28;7;Rest;R-D;Guitare;For05;E1;1.0;R1;initial;1.0;3.412312500000553
sub-07;28;8;Rest;R-D;Cactus;mars-01;E1;0.0;R1;initial;1.0;3.9357504999998127
sub-07;28;9;Rest;R-D;Tasse;For01;E1;1.0;R1;initial;1.0;2.207291599999735
sub-07;28;10;Rest;R-D;Fourchette;Mon05;E1;1.0;R1;initial;0.0;15.002804900000228
sub-07;28;11;Rest;R-D;Cerise;Mon02;E1;2.0;R1;initial;0.0;12.7803057000001
sub-07;28;12;Rest;R-D;Broccoli;Urb06;E1;1.0;R1;initial;1.0;7.331471999999849
sub-07;28;13;Rest;R-D;Violon;Esp03;E1;1.0;R1;initial;1.0;3.095877599999767
sub-07;28;14;Rest;R-D;Ampoule;Urb10;E1;2.0;R1;initial;1.0;3.239778500000284
sub-07;28;15;Rest;R-D;Tracteur;Cam03;E1;3.0;R1;initial;1.0;4.416902099999788
sub-07;28;16;Rest;R-D;Ciseaux;Mon10;E1;0.0;R1;initial;0.0;14.584902900000088
sub-07;28;17;Rest;R-D;Bonnet;mars-04;E1;1.0;R1;initial;1.0;2.8124106999994183
sub-07;28;18;Rest;R-D;Moto;Mon13;E1;0.0;R1;initial;1.0;2.0768244000000777
sub-07;28;19;Rest;R-D;Tournevis;Mon04;E1;0.0;R1;initial;0.0;15.003199400000083
sub-07;28;20;Rest;R-D;Dauphin;Urb02;E1;0.0;R1;initial;1.0;3.905855199999678
sub-07;28;21;Rest;R-D;Stylo;Des02;E1;1.0;R1;initial;1.0;3.197744299999613
sub-07;28;22;Rest;R-D;Pomme;Urb11;E1;1.0;R1;initial;1.0;2.924520599999596
sub-07;28;23;Rest;R-D;Tortue;Des05;E1;1.0;R1;initial;1.0;2.897005700000591
sub-07;28;24;Rest;R-D;Table;Des03;E1;0.0;R1;initial;1.0;4.739305199999762
sub-07;28;25;Rest;R-D;Bougie;Mon01;E1;1.0;R1;initial;1.0;4.232341599999927
sub-07;28;26;Distraction;R-D;Pain;Mon03;E2;1.0;R2;initial;0.0;15.014488900000288
sub-07;28;27;Distraction;R-D;Prise;Nei01;E2;0.0;R2;initial;1.0;2.1015933999997287
sub-07;28;28;Distraction;R-D;Lunettes;Mon06;E2;1.0;R2;initial;1.0;7.037004999999226
sub-07;28;29;Distraction;R-D;Casquette;For04;E2;2.0;R2;initial;1.0;6.333527499999946
sub-07;28;30;Distraction;R-D;Girafe;Urb09;E2;0.0;R2;initial;1.0;3.0842462000000523
sub-07;28;31;Distraction;R-D;Sac;For06;E2;2.0;R2;initial;1.0;2.7616104999997333
sub-07;28;32;Distraction;R-D;Pinceau;Esp02;E2;0.0;R2;initial;1.0;2.73429170000054
sub-07;28;33;Distraction;R-D;Montre;Urb04;E2;3.0;R2;initial;1.0;2.4642119999998613
sub-07;28;34;Distraction;R-D;Voiture;For03;E2;0.0;R2;initial;1.0;2.271132500000021
sub-07;28;35;Distraction;R-D;Papillon;Mon11;E2;3.0;R2;initial;0.0;13.227004600000328
sub-07;28;36;Distraction;R-D;Chien;Eau05;E2;1.0;R2;initial;1.0;2.984829799999716
sub-07;28;37;Distraction;R-D;Chapeau;Cam02;E2;1.0;R2;initial;1.0;3.1043342000002667
sub-07;28;38;Distraction;R-D;Elephant;Mon12;E2;0.0;R2;initial;1.0;5.194666999999754
sub-07;28;39;Distraction;R-D;Seau;Urb07;E2;0.0;R2;initial;1.0;5.410231500000009
sub-07;28;40;Distraction;R-D;Rhinoceros;Nei03;E2;0.0;R2;initial;0.0;15.006234599999516
sub-07;28;41;Distraction;R-D;Canard;Mon07;E2;0.0;R2;initial;1.0;2.783589500000744
sub-07;28;42;Distraction;R-D;Velo;mars-03;E2;1.0;R2;initial;1.0;1.682403400000112
sub-07;28;43;Distraction;R-D;Crayon;mars-02;E2;1.0;R2;initial;1.0;2.144187500000044
sub-07;28;44;Distraction;R-D;Trompette;Eau02;E2;0.0;R2;initial;1.0;4.052253399999245
sub-07;28;45;Distraction;R-D;Chat;Des01;E2;0.0;R2;initial;1.0;1.7075960000001942
sub-07;28;46;Distraction;R-D;Clef;Nei02;E2;0.0;R2;initial;1.0;1.9436635000001845
sub-07;28;47;Distraction;R-D;Cheval;Urb01;E2;1.0;R2;initial;1.0;2.92108989999997
sub-07;28;48;Distraction;R-D;Lion;Mon14;E2;0.0;R2;initial;0.0;5.849118199999793
sub-07;28;49;Distraction;R-D;Piano;Urb03;E2;1.0;R2;initial;1.0;1.8764985999996495
sub-07;28;50;Distraction;R-D;Marteau;Eau06;E2;0.0;R2;initial;1.0;2.610776800000167
sub-07;28;10bis;Rest;R-D;Fourchette;Mon05;E1;1.0;RF;final;0.0;5.119667900000422
sub-07;28;11bis;Rest;R-D;Cerise;Mon02;E1;2.0;RF;final;0.0;1.6844848000000638
sub-07;28;12bis;Rest;R-D;Broccoli;Urb06;E1;1.0;RF;final;1.0;3.490409500000169
sub-07;28;13bis;Rest;R-D;Violon;Esp03;E1;1.0;RF;final;1.0;2.073582600000009
sub-07;28;14bis;Rest;R-D;Ampoule;Urb10;E1;2.0;RF;final;1.0;2.214997900000526
sub-07;28;15bis;Rest;R-D;Tracteur;Cam03;E1;3.0;RF;final;1.0;2.2833982000001924
sub-07;28;16bis;Rest;R-D;Ciseaux;Mon10;E1;0.0;RF;final;0.0;2.10440220000055
sub-07;28;17bis;Rest;R-D;Bonnet;mars-04;E1;1.0;RF;final;1.0;2.09779189999972
sub-07;28;18bis;Rest;R-D;Moto;Mon13;E1;0.0;RF;final;1.0;1.610034999999698
sub-07;28;19bis;Rest;R-D;Tournevis;Mon04;E1;0.0;RF;final;0.0;4.392336199999591
sub-07;28;1bis;Rest;R-D;Fromage;Urb08;E1;0.0;RF;final;0.0;3.021378999999797
sub-07;28;20bis;Rest;R-D;Dauphin;Urb02;E1;0.0;RF;final;1.0;2.5295732000004136
sub-07;28;21bis;Rest;R-D;Stylo;Des02;E1;1.0;RF;final;1.0;2.5954390999995667
sub-07;28;22bis;Rest;R-D;Pomme;Urb11;E1;1.0;RF;final;1.0;1.6545944999998028
sub-07;28;23bis;Rest;R-D;Tortue;Des05;E1;1.0;RF;final;1.0;2.3549063000000388
sub-07;28;24bis;Rest;R-D;Table;Des03;E1;0.0;RF;final;1.0;1.5874658000002455
sub-07;28;25bis;Rest;R-D;Bougie;Mon01;E1;1.0;RF;final;0.0;12.862136000000646
sub-07;28;26bis;Distraction;R-D;Pain;Mon03;E2;1.0;RF;final;0.0;2.6602068000001964
sub-07;28;27bis;Distraction;R-D;Prise;Nei01;E2;0.0;RF;final;1.0;2.20134009999947
sub-07;28;28bis;Distraction;R-D;Lunettes;Mon06;E2;1.0;RF;final;1.0;2.082322500000373
sub-07;28;29bis;Distraction;R-D;Casquette;For04;E2;2.0;RF;final;1.0;2.4083042000002024
sub-07;28;2bis;Rest;R-D;Citron;Eau03;E1;0.0;RF;final;0.0;1.6731447000001936
sub-07;28;30bis;Distraction;R-D;Girafe;Urb09;E2;0.0;RF;final;1.0;2.478708100000404
sub-07;28;31bis;Distraction;R-D;Sac;For06;E2;2.0;RF;final;1.0;1.74445040000046
sub-07;28;32bis;Distraction;R-D;Pinceau;Esp02;E2;0.0;RF;final;1.0;2.0558075000008103
sub-07;28;33bis;Distraction;R-D;Montre;Urb04;E2;3.0;RF;final;1.0;2.2315749999997934
sub-07;28;34bis;Distraction;R-D;Voiture;For03;E2;0.0;RF;final;1.0;1.9054728000000976
sub-07;28;35bis;Distraction;R-D;Papillon;Mon11;E2;3.0;RF;final;0.0;15.01422459999958
sub-07;28;36bis;Distraction;R-D;Chien;Eau05;E2;1.0;RF;final;1.0;2.276091599999745
sub-07;28;37bis;Distraction;R-D;Chapeau;Cam02;E2;1.0;RF;final;1.0;2.290069300000141
sub-07;28;38bis;Distraction;R-D;Elephant;Mon12;E2;0.0;RF;final;1.0;5.370928300000742
sub-07;28;39bis;Distraction;R-D;Seau;Urb07;E2;0.0;RF;final;1.0;1.4739880000006451
sub-07;28;3bis;Rest;R-D;Poire;Esp05;E1;0.0;RF;final;0.0;15.0058824000007
sub-07;28;40bis;Distraction;R-D;Rhinoceros;Nei03;E2;0.0;RF;final;0.0;3.501487100000304
sub-07;28;41bis;Distraction;R-D;Canard;Mon07;E2;0.0;RF;final;1.0;2.2868703000003734
sub-07;28;42bis;Distraction;R-D;Velo;mars-03;E2;1.0;RF;final;1.0;1.173310500000298
sub-07;28;43bis;Distraction;R-D;Crayon;mars-02;E2;1.0;RF;final;1.0;2.0072681999999986
sub-07;28;44bis;Distraction;R-D;Trompette;Eau02;E2;0.0;RF;final;1.0;2.6688654999998107
sub-07;28;45bis;Distraction;R-D;Chat;Des01;E2;0.0;RF;final;1.0;1.9443083000005568
sub-07;28;46bis;Distraction;R-D;Clef;Nei02;E2;0.0;RF;final;1.0;1.692417899999782
sub-07;28;47bis;Distraction;R-D;Cheval;Urb01;E2;1.0;RF;final;1.0;2.583724500000244
sub-07;28;48bis;Distraction;R-D;Lion;Mon14;E2;0.0;RF;final;1.0;6.720572199999879
sub-07;28;49bis;Distraction;R-D;Piano;Urb03;E2;1.0;RF;final;1.0;2.056169100000261
sub-07;28;4bis;Rest;R-D;Balai;Des04;E1;0.0;RF;final;0.0;1.2798237999995763
sub-07;28;50bis;Distraction;R-D;Marteau;Eau06;E2;0.0;RF;final;1.0;2.2238851000001887
sub-07;28;5bis;Rest;R-D;Carotte;Eau04;E1;0.0;RF;final;1.0;1.448609299999589
sub-07;28;6bis;Rest;R-D;Fraise;Mon09;E1;0.0;RF;final;0.0;4.012374899999486
sub-07;28;7bis;Rest;R-D;Guitare;For05;E1;1.0;RF;final;1.0;3.2352946000000884
sub-07;28;8bis;Rest;R-D;Cactus;mars-01;E1;0.0;RF;final;1.0;1.9384330000002592
sub-07;28;9bis;Rest;R-D;Tasse;For01;E1;1.0;RF;final;1.0;4.54042760000084
sub-10;24;1;Distraction;D-R;Piano;mars-02;E1;0.0;R1;initial;0.0;1.3657842000002347
sub-10;24;2;Distraction;D-R;Chapeau;Des04;E1;2.0;R1;initial;1.0;5.158100499999819
sub-10;24;3;Distraction;D-R;Girafe;mars-04;E1;0.0;R1;initial;1.0;9.296703699999853
sub-10;24;4;Distraction;D-R;Guitare;Mon12;E1;2.0;R1;initial;0.0;7.415669799999705
sub-10;24;5;Distraction;D-R;Chien;mars-01;E1;0.0;R1;initial;1.0;2.420544899999186
sub-10;24;6;Distraction;D-R;Fraise;Urb11;E1;1.0;R1;initial;1.0;2.618514800000412
sub-10;24;7;Distraction;D-R;Dauphin;Mon09;E1;0.0;R1;initial;0.0;1.201764400000684
sub-10;24;8;Distraction;D-R;Violon;Urb08;E1;1.0;R1;initial;1.0;3.3473973999998634
sub-10;24;9;Distraction;D-R;Sac;Mon01;E1;3.0;R1;initial;1.0;1.8766645000005155
sub-10;24;10;Distraction;D-R;Balai;Des02;E1;0.0;R1;initial;0.0;4.622004400000151
sub-10;24;11;Distraction;D-R;Ampoule;Urb03;E1;3.0;R1;initial;1.0;2.946006500000294
sub-10;24;12;Distraction;D-R;Papillon;Mon02;E1;3.0;R1;initial;0.0;4.339402300000074
sub-10;24;13;Distraction;D-R;Poire;For06;E1;2.0;R1;initial;1.0;2.6126751000001605
sub-10;24;14;Distraction;D-R;Fourchette;Cam02;E1;1.0;R1;initial;0.0;15.006127700000434
sub-10;24;15;Distraction;D-R;Clef;For05;E1;1.0;R1;initial;1.0;2.320523000000321
sub-10;24;16;Distraction;D-R;Cerise;Mon04;E1;0.0;R1;initial;0.0;6.964237000000139
sub-10;24;17;Distraction;D-R;Chat;Eau03;E1;1.0;R1;initial;1.0;1.9427911000002496
sub-10;24;18;Distraction;D-R;Moto;Esp05;E1;0.0;R1;initial;1.0;2.1730477999999493
sub-10;24;19;Distraction;D-R;Cactus;Nei01;E1;0.0;R1;initial;0.0;15.016505599999618
sub-10;24;20;Distraction;D-R;Voiture;Eau05;E1;0.0;R1;initial;0.0;15.012408099999448
sub-10;24;21;Distraction;D-R;Pomme;Mon13;E1;0.0;R1;initial;1.0;10.276340299999902
sub-10;24;22;Distraction;D-R;Casquette;Mon03;E1;1.0;R1;initial;0.0;4.418704100000468
sub-10;24;23;Distraction;D-R;Stylo;Mon10;E1;0.0;R1;initial;0.0;8.368370099999993
sub-10;24;24;Distraction;D-R;Seau;Esp02;E1;0.0;R1;initial;1.0;2.3776756999996
sub-10;24;25;Distraction;D-R;Lion;Des03;E1;0.0;R1;initial;1.0;1.7214924999998402
sub-10;24;26;Rest;D-R;Lunettes;Urb06;E2;3.0;R2;initial;1.0;3.20920870000009
sub-10;24;27;Rest;D-R;Cheval;Esp03;E2;0.0;R2;initial;0.0;8.672081499999877
sub-10;24;28;Rest;D-R;Pain;Nei03;E2;0.0;R2;initial;0.0;15.001407499999914
sub-10;24;29;Rest;D-R;Fromage;Des01;E2;0.0;R2;initial;0.0;6.604864300000372
sub-10;24;30;Rest;D-R;Elephant;Nei02;E2;0.0;R2;initial;0.0;2.876357199999802
sub-10;24;31;Rest;D-R;Montre;Urb01;E2;3.0;R2;initial;0.0;15.012906800000565
sub-10;24;32;Rest;D-R;Tournevis;Urb04;E2;3.0;R2;initial;1.0;3.7919102000005296
sub-10;24;33;Rest;D-R;Rhinoceros;For03;E2;0.0;R2;initial;1.0;3.750711299999239
sub-10;24;34;Rest;D-R;Velo;mars-03;E2;0.0;R2;initial;1.0;2.263414500000181
sub-10;24;35;Rest;D-R;Broccoli;Mon05;E2;0.0;R2;initial;1.0;5.139243300000089
sub-10;24;36;Rest;D-R;Trompette;Mon11;E2;0.0;R2;initial;0.0;1.9804012999993572
sub-10;24;37;Rest;D-R;Crayon;Mon07;E2;0.0;R2;initial;0.0;15.010284099999808
sub-10;24;38;Rest;D-R;Prise;Urb10;E2;3.0;R2;initial;0.0;11.414642799999456
sub-10;24;39;Rest;D-R;Bonnet;For04;E2;;R2;initial;0.0;0.7021546999994825
sub-10;24;40;Rest;D-R;Tracteur;Eau06;E2;0.0;R2;initial;0.0;13.996621199999936
sub-10;24;41;Rest;D-R;Tasse;Urb07;E2;2.0;R2;initial;1.0;1.810895300000084
sub-10;24;42;Rest;D-R;Ciseaux;Cam03;E2;1.0;R2;initial;1.0;2.7403213999996296
sub-10;24;43;Rest;D-R;Carotte;For01;E2;0.0;R2;initial;1.0;2.547689299999547
sub-10;24;44;Rest;D-R;Citron;Eau02;E2;0.0;R2;initial;0.0;0.8617425000002186
sub-10;24;45;Rest;D-R;Table;Urb09;E2;3.0;R2;initial;1.0;2.1378702000001795
sub-10;24;46;Rest;D-R;Bougie;Mon06;E2;0.0;R2;initial;0.0;6.990412699999979
sub-10;24;47;Rest;D-R;Tortue;Eau04;E2;1.0;R2;initial;1.0;3.515508399999817
sub-10;24;48;Rest;D-R;Canard;Des05;E2;2.0;R2;initial;1.0;3.1278424000001905
sub-10;24;49;Rest;D-R;Marteau;Urb02;E2;3.0;R2;initial;0.0;3.402205000000322
sub-10;24;50;Rest;D-R;Pinceau;Mon14;E2;0.0;R2;initial;0.0;2.201113299999633
sub-10;24;10bis;Distraction;D-R;Balai;Des02;E1;0.0;RF;final;0.0;2.612494199998764
sub-10;24;11bis;Distraction;D-R;Ampoule;Urb03;E1;3.0;RF;final;1.0;4.328572699998404
sub-10;24;12bis;Distraction;D-R;Papillon;Mon02;E1;3.0;RF;final;0.0;5.083615200001077
sub-10;24;13bis;Distraction;D-R;Poire;For06;E1;2.0;RF;final;1.0;2.7205025000002934
sub-10;24;14bis;Distraction;D-R;Fourchette;Cam02;E1;1.0;RF;final;0.0;2.925464500000089
sub-10;24;15bis;Distraction;D-R;Clef;For05;E1;1.0;RF;final;1.0;1.6228153000010934
sub-10;24;16bis;Distraction;D-R;Cerise;Mon04;E1;0.0;RF;final;0.0;0.8835206999992806
sub-10;24;17bis;Distraction;D-R;Chat;Eau03;E1;1.0;RF;final;1.0;1.7654980999996042
sub-10;24;18bis;Distraction;D-R;Moto;Esp05;E1;0.0;RF;final;0.0;3.904778699999952
sub-10;24;19bis;Distraction;D-R;Cactus;Nei01;E1;0.0;RF;final;0.0;1.708567600000606
sub-10;24;1bis;Distraction;D-R;Piano;mars-02;E1;0.0;RF;final;0.0;1.7750857999999423
sub-10;24;20bis;Distraction;D-R;Voiture;Eau05;E1;0.0;RF;final;0.0;0.6974365999994916
sub-10;24;21bis;Distraction;D-R;Pomme;Mon13;E1;0.0;RF;final;1.0;10.001927400000568
sub-10;24;22bis;Distraction;D-R;Casquette;Mon03;E1;1.0;RF;final;1.0;3.0699390999998286
sub-10;24;23bis;Distraction;D-R;Stylo;Mon10;E1;0.0;RF;final;0.0;0.8357187000001431
sub-10;24;24bis;Distraction;D-R;Seau;Esp02;E1;0.0;RF;final;0.0;2.5675298999994998
sub-10;24;25bis;Distraction;D-R;Lion;Des03;E1;0.0;RF;final;1.0;2.3950789000009536
sub-10;24;26bis;Rest;D-R;Lunettes;Urb06;E2;3.0;RF;final;1.0;4.130439499998829
sub-10;24;27bis;Rest;D-R;Cheval;Esp03;E2;0.0;RF;final;0.0;12.61446689999866
sub-10;24;28bis;Rest;D-R;Pain;Nei03;E2;0.0;RF;final;0.0;2.388215900000432
sub-10;24;29bis;Rest;D-R;Fromage;Des01;E2;0.0;RF;final;0.0;2.373058199998922
sub-10;24;2bis;Distraction;D-R;Chapeau;Des04;E1;2.0;RF;final;0.0;0.6495685000008962
sub-10;24;30bis;Rest;D-R;Elephant;Nei02;E2;0.0;RF;final;0.0;9.07348439999987
sub-10;24;31bis;Rest;D-R;Montre;Urb01;E2;3.0;RF;final;0.0;1.6102775999988808
sub-10;24;32bis;Rest;D-R;Tournevis;Urb04;E2;3.0;RF;final;1.0;4.87599709999995
sub-10;24;33bis;Rest;D-R;Rhinoceros;For03;E2;0.0;RF;final;1.0;8.154796299999362
sub-10;24;34bis;Rest;D-R;Velo;mars-03;E2;0.0;RF;final;1.0;2.170636099999683
sub-10;24;35bis;Rest;D-R;Broccoli;Mon05;E2;0.0;RF;final;1.0;9.102964600000632
sub-10;24;36bis;Rest;D-R;Trompette;Mon11;E2;0.0;RF;final;0.0;0.7015245000002324
sub-10;24;37bis;Rest;D-R;Crayon;Mon07;E2;0.0;RF;final;0.0;0.9257106000004568
sub-10;24;38bis;Rest;D-R;Prise;Urb10;E2;3.0;RF;final;0.0;2.451917799999137
sub-10;24;39bis;Rest;D-R;Bonnet;For04;E2;;RF;final;0.0;0.7335759999987204
sub-10;24;3bis;Distraction;D-R;Girafe;mars-04;E1;0.0;RF;final;0.0;4.405598100000134
sub-10;24;40bis;Rest;D-R;Tracteur;Eau06;E2;0.0;RF;final;1.0;3.034091699999408
sub-10;24;41bis;Rest;D-R;Tasse;Urb07;E2;2.0;RF;final;1.0;2.0678935999985697
sub-10;24;42bis;Rest;D-R;Ciseaux;Cam03;E2;1.0;RF;final;1.0;2.4718622000000323
sub-10;24;43bis;Rest;D-R;Carotte;For01;E2;0.0;RF;final;0.0;15.008571400001529
sub-10;24;44bis;Rest;D-R;Citron;Eau02;E2;0.0;RF;final;0.0;0.7106225000006816
sub-10;24;45bis;Rest;D-R;Table;Urb09;E2;3.0;RF;final;1.0;2.4966715999999
sub-10;24;46bis;Rest;D-R;Bougie;Mon06;E2;0.0;RF;final;1.0;6.678196799999569
sub-10;24;47bis;Rest;D-R;Tortue;Eau04;E2;1.0;RF;final;1.0;2.936579499999425
sub-10;24;48bis;Rest;D-R;Canard;Des05;E2;2.0;RF;final;1.0;2.0917808000012883
sub-10;24;49bis;Rest;D-R;Marteau;Urb02;E2;3.0;RF;final;0.0;3.9222881000005145
sub-10;24;4bis;Distraction;D-R;Guitare;Mon12;E1;2.0;RF;final;0.0;15.003643300000476
sub-10;24;50bis;Rest;D-R;Pinceau;Mon14;E2;0.0;RF;final;0.0;1.0283861999996589
sub-10;24;5bis;Distraction;D-R;Chien;mars-01;E1;0.0;RF;final;1.0;2.479940599998372
sub-10;24;6bis;Distraction;D-R;Fraise;Urb11;E1;1.0;RF;final;1.0;2.2224796999998944
sub-10;24;7bis;Distraction;D-R;Dauphin;Mon09;E1;0.0;RF;final;0.0;1.1502312000011443
sub-10;24;8bis;Distraction;D-R;Violon;Urb08;E1;1.0;RF;final;1.0;3.9997528000003513
sub-10;24;9bis;Distraction;D-R;Sac;Mon01;E1;3.0;RF;final;1.0;2.221132200000284
sub-12;29;1;Rest;R-D;Piano;Urb08;E1;0.0;R1;initial;1.0;2.396039899999778
sub-12;29;2;Rest;R-D;Velo;Mon07;E1;2.0;R1;initial;1.0;5.313536599999679
sub-12;29;3;Rest;R-D;Fourchette;Urb09;E1;1.0;R1;initial;1.0;4.035675699999956
sub-12;29;4;Rest;R-D;Bougie;mars-02;E1;0.0;R1;initial;1.0;3.141736800000217
sub-12;29;5;Rest;R-D;Tracteur;Urb06;E1;1.0;R1;initial;1.0;3.48379230000046
sub-12;29;6;Rest;R-D;Balai;For03;E1;1.0;R1;initial;1.0;2.981492200000502
sub-12;29;7;Rest;R-D;Ampoule;Urb11;E1;1.0;R1;initial;1.0;3.065839799999594
sub-12;29;8;Rest;R-D;Cheval;Esp02;E1;0.0;R1;initial;1.0;3.2786604000002626
sub-12;29;9;Rest;R-D;Lunettes;Mon12;E1;1.0;R1;initial;1.0;4.792238200000611
sub-12;29;10;Rest;R-D;Table;Eau03;E1;1.0;R1;initial;1.0;3.085050200000296
sub-12;29;11;Rest;R-D;Tasse;For04;E1;0.0;R1;initial;1.0;2.736983599999803
sub-12;29;12;Rest;R-D;Carotte;Des04;E1;1.0;R1;initial;1.0;9.722621200000503
sub-12;29;13;Rest;R-D;Moto;Des01;E1;2.0;R1;initial;0.0;5.626307100000304
sub-12;29;14;Rest;R-D;Pomme;Nei02;E1;0.0;R1;initial;1.0;2.345467500000268
sub-12;29;15;Rest;R-D;Seau;mars-01;E1;0.0;R1;initial;0.0;15.0118051999998
sub-12;29;16;Rest;R-D;Tournevis;mars-04;E1;0.0;R1;initial;0.0;15.015445099999852
sub-12;29;17;Rest;R-D;Pinceau;Eau06;E1;0.0;R1;initial;1.0;3.2751052000003256
sub-12;29;18;Rest;R-D;Cerise;Esp03;E1;0.0;R1;initial;1.0;3.103380300000026
sub-12;29;19;Rest;R-D;Girafe;Mon05;E1;1.0;R1;initial;1.0;2.9797496000001047
sub-12;29;20;Rest;R-D;Crayon;Mon01;E1;1.0;R1;initial;1.0;4.1316304000001765
sub-12;29;21;Rest;R-D;Chien;For01;E1;3.0;R1;initial;1.0;2.68985099999918
sub-12;29;22;Rest;R-D;Papillon;Mon03;E1;2.0;R1;initial;1.0;3.768563199999335
sub-12;29;23;Rest;R-D;Casquette;Des02;E1;1.0;R1;initial;1.0;3.624389999999949
sub-12;29;24;Rest;R-D;Prise;Mon10;E1;0.0;R1;initial;1.0;1.7924323000006552
sub-12;29;25;Rest;R-D;Tortue;Urb01;E1;1.0;R1;initial;1.0;3.9342053999998825
sub-12;29;26;Distraction;R-D;Broccoli;Des05;E2;0.0;R2;initial;0.0;15.00366909999957
sub-12;29;27;Distraction;R-D;Trompette;Cam03;E2;0.0;R2;initial;1.0;5.46642780000002
sub-12;29;28;Distraction;R-D;Violon;Esp05;E2;0.0;R2;initial;1.0;3.719359199999417
sub-12;29;29;Distraction;R-D;Chapeau;Urb04;E2;3.0;R2;initial;1.0;5.96431290000055
sub-12;29;30;Distraction;R-D;Montre;Nei03;E2;0.0;R2;initial;1.0;2.74891690000004
sub-12;29;31;Distraction;R-D;Fraise;Mon02;E2;1.0;R2;initial;0.0;15.006449800000157
sub-12;29;32;Distraction;R-D;Sac;Des03;E2;1.0;R2;initial;1.0;2.079404899999645
sub-12;29;33;Distraction;R-D;Chat;Nei01;E2;1.0;R2;initial;1.0;1.8069042999995872
sub-12;29;34;Distraction;R-D;Poire;Urb03;E2;1.0;R2;initial;1.0;4.402508400000443
sub-12;29;35;Distraction;R-D;Elephant;For06;E2;0.0;R2;initial;1.0;3.49455080000007
sub-12;29;36;Distraction;R-D;Clef;Eau05;E2;0.0;R2;initial;0.0;15.014819200000602
sub-12;29;37;Distraction;R-D;Canard;Mon13;E2;0.0;R2;initial;1.0;2.8882058999997757
sub-12;29;38;Distraction;R-D;Lion;Urb07;E2;0.0;R2;initial;1.0;1.517872199999147
sub-12;29;39;Distraction;R-D;Voiture;Mon11;E2;1.0;R2;initial;1.0;3.060685000000376
sub-12;29;40;Distraction;R-D;Guitare;Urb02;E2;3.0;R2;initial;1.0;2.737115200000517
sub-12;29;41;Distraction;R-D;Stylo;Urb10;E2;3.0;R2;initial;1.0;2.522116899999673
sub-12;29;42;Distraction;R-D;Citron;Eau04;E2;1.0;R2;initial;1.0;2.049485200000163
sub-12;29;43;Distraction;R-D;Fromage;Mon09;E2;0.0;R2;initial;0.0;15.011236199999985
sub-12;29;44;Distraction;R-D;Pain;Cam02;E2;0.0;R2;initial;0.0;15.007394399999612
sub-12;29;45;Distraction;R-D;Bonnet;Eau02;E2;1.0;R2;initial;1.0;2.3913558999993256
sub-12;29;46;Distraction;R-D;Ciseaux;For05;E2;0.0;R2;initial;1.0;5.0955205999998725
sub-12;29;47;Distraction;R-D;Dauphin;mars-03;E2;3.0;R2;initial;1.0;3.3332351999997627
sub-12;29;48;Distraction;R-D;Cactus;Mon14;E2;2.0;R2;initial;1.0;3.157759900000201
sub-12;29;49;Distraction;R-D;Rhinoceros;Mon06;E2;0.0;R2;initial;1.0;4.295767200000228
sub-12;29;50;Distraction;R-D;Marteau;Mon04;E2;0.0;R2;initial;1.0;3.1168799999995827
sub-12;29;10bis;Rest;R-D;Table;Eau03;E1;1.0;RF;final;1.0;2.4551229999997304
sub-12;29;11bis;Rest;R-D;Tasse;For04;E1;0.0;RF;final;1.0;2.136542300000656
sub-12;29;12bis;Rest;R-D;Carotte;Des04;E1;1.0;RF;final;0.0;15.008566900000003
sub-12;29;13bis;Rest;R-D;Moto;Des01;E1;2.0;RF;final;0.0;15.00116539999908
sub-12;29;14bis;Rest;R-D;Pomme;Nei02;E1;0.0;RF;final;1.0;2.0838404999994964
sub-12;29;15bis;Rest;R-D;Seau;mars-01;E1;0.0;RF;final;0.0;3.503579800000807
sub-12;29;16bis;Rest;R-D;Tournevis;mars-04;E1;0.0;RF;final;0.0;3.028770400000212
sub-12;29;17bis;Rest;R-D;Pinceau;Eau06;E1;0.0;RF;final;1.0;2.602584399999614
sub-12;29;18bis;Rest;R-D;Cerise;Esp03;E1;0.0;RF;final;1.0;2.5293971999999485
sub-12;29;19bis;Rest;R-D;Girafe;Mon05;E1;1.0;RF;final;1.0;2.683505699998932
sub-12;29;1bis;Rest;R-D;Piano;Urb08;E1;0.0;RF;final;1.0;2.925984100000278
sub-12;29;20bis;Rest;R-D;Crayon;Mon01;E1;1.0;RF;final;1.0;3.6303123000016058
sub-12;29;21bis;Rest;R-D;Chien;For01;E1;3.0;RF;final;1.0;3.3519398999997065
sub-12;29;22bis;Rest;R-D;Papillon;Mon03;E1;2.0;RF;final;1.0;3.155519199999617
sub-12;29;23bis;Rest;R-D;Casquette;Des02;E1;1.0;RF;final;1.0;2.6134314999999333
sub-12;29;24bis;Rest;R-D;Prise;Mon10;E1;0.0;RF;final;1.0;6.1245727999994415
sub-12;29;25bis;Rest;R-D;Tortue;Urb01;E1;1.0;RF;final;1.0;2.449300000000221
sub-12;29;26bis;Distraction;R-D;Broccoli;Des05;E2;0.0;RF;final;0.0;4.002151499998945
sub-12;29;27bis;Distraction;R-D;Trompette;Cam03;E2;0.0;RF;final;1.0;2.250519000001077
sub-12;29;28bis;Distraction;R-D;Violon;Esp05;E2;0.0;RF;final;1.0;2.324239400000806
sub-12;29;29bis;Distraction;R-D;Chapeau;Urb04;E2;3.0;RF;final;1.0;2.875498900000821
sub-12;29;2bis;Rest;R-D;Velo;Mon07;E1;2.0;RF;final;0.0;4.118612299998858
sub-12;29;30bis;Distraction;R-D;Montre;Nei03;E2;0.0;RF;final;1.0;2.126152299999376
sub-12;29;31bis;Distraction;R-D;Fraise;Mon02;E2;1.0;RF;final;0.0;3.9695784999985335
sub-12;29;32bis;Distraction;R-D;Sac;Des03;E2;1.0;RF;final;1.0;1.5548322000013286
sub-12;29;33bis;Distraction;R-D;Chat;Nei01;E2;1.0;RF;final;1.0;1.8707717999986928
sub-12;29;34bis;Distraction;R-D;Poire;Urb03;E2;1.0;RF;final;1.0;2.3079280000001745
sub-12;29;35bis;Distraction;R-D;Elephant;For06;E2;0.0;RF;final;1.0;3.7078997999997223
sub-12;29;36bis;Distraction;R-D;Clef;Eau05;E2;0.0;RF;final;0.0;5.727235299998938
sub-12;29;37bis;Distraction;R-D;Canard;Mon13;E2;0.0;RF;final;1.0;2.675122399999964
sub-12;29;38bis;Distraction;R-D;Lion;Urb07;E2;0.0;RF;final;1.0;1.829624899999544
sub-12;29;39bis;Distraction;R-D;Voiture;Mon11;E2;1.0;RF;final;1.0;1.9711585999993984
sub-12;29;3bis;Rest;R-D;Fourchette;Urb09;E1;1.0;RF;final;1.0;3.356920099999116
sub-12;29;40bis;Distraction;R-D;Guitare;Urb02;E2;3.0;RF;final;1.0;4.445020299999669
sub-12;29;41bis;Distraction;R-D;Stylo;Urb10;E2;3.0;RF;final;1.0;2.4260405999993964
sub-12;29;42bis;Distraction;R-D;Citron;Eau04;E2;1.0;RF;final;1.0;3.58926910000082
sub-12;29;43bis;Distraction;R-D;Fromage;Mon09;E2;0.0;RF;final;0.0;15.00322000000051
sub-12;29;44bis;Distraction;R-D;Pain;Cam02;E2;0.0;RF;final;0.0;9.38008980000086
sub-12;29;45bis;Distraction;R-D;Bonnet;Eau02;E2;1.0;RF;final;1.0;2.082076900000174
sub-12;29;46bis;Distraction;R-D;Ciseaux;For05;E2;0.0;RF;final;1.0;2.7198656000000483
sub-12;29;47bis;Distraction;R-D;Dauphin;mars-03;E2;3.0;RF;final;0.0;8.211508799999137
sub-12;29;48bis;Distraction;R-D;Cactus;Mon14;E2;2.0;RF;final;1.0;2.3963655999996263
sub-12;29;49bis;Distraction;R-D;Rhinoceros;Mon06;E2;0.0;RF;final;1.0;3.49060610000015
sub-12;29;4bis;Rest;R-D;Bougie;mars-02;E1;0.0;RF;final;1.0;8.089049399999567
sub-12;29;50bis;Distraction;R-D;Marteau;Mon04;E2;0.0;RF;final;1.0;2.5878027999988262
sub-12;29;5bis;Rest;R-D;Tracteur;Urb06;E1;1.0;RF;final;1.0;3.240488400000686
sub-12;29;6bis;Rest;R-D;Balai;For03;E1;1.0;RF;final;1.0;2.367429899999479
sub-12;29;7bis;Rest;R-D;Ampoule;Urb11;E1;1.0;RF;final;1.0;2.918777200000477
sub-12;29;8bis;Rest;R-D;Cheval;Esp02;E1;0.0;RF;final;1.0;2.680460600000515
sub-12;29;9bis;Rest;R-D;Lunettes;Mon12;E1;1.0;RF;final;1.0;3.960664100000941
sub-14;53;1;Rest;R-D;Balai;Des01;E1;1.0;R1;initial;1.0;2.912157699999625
sub-14;53;2;Rest;R-D;Carotte;Mon06;E1;0.0;R1;initial;0.0;8.159875500000453
sub-14;53;3;Rest;R-D;Tournevis;mars-01;E1;0.0;R1;initial;0.0;2.30724999999984
sub-14;53;4;Rest;R-D;Bougie;Mon03;E1;2.0;R1;initial;0.0;11.05898100000013
sub-14;53;5;Rest;R-D;Seau;Mon02;E1;2.0;R1;initial;1.0;4.481813499999589
sub-14;53;6;Rest;R-D;Canard;Urb08;E1;2.0;R1;initial;0.0;7.527567799999815
sub-14;53;7;Rest;R-D;Lunettes;Des04;E1;2.0;R1;initial;1.0;3.3889328000004757
sub-14;53;8;Rest;R-D;Clef;Urb10;E1;3.0;R1;initial;1.0;10.298263399999996
sub-14;53;9;Rest;R-D;Elephant;For04;E1;2.0;R1;initial;1.0;2.770484399999986
sub-14;53;10;Rest;R-D;Prise;mars-04;E1;0.0;R1;initial;0.0;8.264656600000308
sub-14;53;11;Rest;R-D;Tracteur;For03;E1;3.0;R1;initial;1.0;5.943146700000398
sub-14;53;12;Rest;R-D;Marteau;Mon09;E1;1.0;R1;initial;0.0;11.386085000000094
sub-14;53;13;Rest;R-D;Velo;Mon05;E1;3.0;R1;initial;1.0;2.1709670000000187
sub-14;53;14;Rest;R-D;Rhinoceros;Urb04;E1;2.0;R1;initial;0.0;15.01044019999972
sub-14;53;15;Rest;R-D;Lion;Urb09;E1;1.0;R1;initial;1.0;2.7869236999995337
sub-14;53;16;Rest;R-D;Cactus;Urb02;E1;3.0;R1;initial;1.0;4.5702572999998665
sub-14;53;17;Rest;R-D;Montre;Cam02;E1;2.0;R1;initial;1.0;3.7585753000003024
sub-14;53;18;Rest;R-D;Pain;Des03;E1;3.0;R1;initial;0.0;4.973358700000063
sub-14;53;19;Rest;R-D;Citron;For06;E1;1.0;R1;initial;1.0;3.5357640000001997
sub-14;53;20;Rest;R-D;Bonnet;Esp03;E1;3.0;R1;initial;1.0;2.8043479999996634
sub-14;53;21;Rest;R-D;Cheval;Esp05;E1;3.0;R1;initial;1.0;3.9360305999998673
sub-14;53;22;Rest;R-D;Pomme;Des02;E1;2.0;R1;initial;0.0;9.78961049999998
sub-14;53;23;Rest;R-D;Fraise;mars-03;E1;0.0;R1;initial;0.0;4.824068800000532
sub-14;53;24;Rest;R-D;Voiture;Mon01;E1;2.0;R1;initial;1.0;2.6612803999996686
sub-14;53;25;Rest;R-D;Poire;Mon14;E1;2.0;R1;initial;1.0;2.460661600000094
sub-14;53;26;Distraction;R-D;Papillon;Eau03;E2;0.0;R2;initial;0.0;2.241499200000362
sub-14;53;27;Distraction;R-D;Ciseaux;mars-02;E2;0.0;R2;initial;1.0;6.847089699999742
sub-14;53;28;Distraction;R-D;Tortue;Urb11;E2;0.0;R2;initial;1.0;3.8973511999993207
sub-14;53;29;Distraction;R-D;Dauphin;Urb06;E2;0.0;R2;initial;1.0;3.181514800000514
sub-14;53;30;Distraction;R-D;Girafe;Nei02;E2;0.0;R2;initial;1.0;3.8577408999999534
sub-14;53;31;Distraction;R-D;Fourchette;Nei01;E2;2.0;R2;initial;0.0;4.023994600000151
sub-14;53;32;Distraction;R-D;Sac;Des05;E2;3.0;R2;initial;1.0;1.94964119999986
sub-14;53;33;Distraction;R-D;Cerise;Mon11;E2;0.0;R2;initial;0.0;6.880408500000158
sub-14;53;34;Distraction;R-D;Chat;For05;E2;3.0;R2;initial;1.0;3.1411435999998503
sub-14;53;35;Distraction;R-D;Broccoli;Mon13;E2;1.0;R2;initial;1.0;3.8866561000004367
sub-14;53;36;Distraction;R-D;Stylo;Mon07;E2;1.0;R2;initial;1.0;2.965549900000042
sub-14;53;37;Distraction;R-D;Guitare;Esp02;E2;2.0;R2;initial;1.0;2.7883758999996644
sub-14;53;38;Distraction;R-D;Pinceau;Mon12;E2;3.0;R2;initial;1.0;11.325775000000249
sub-14;53;39;Distraction;R-D;Tasse;Mon10;E2;2.0;R2;initial;1.0;2.8545051999999487
sub-14;53;40;Distraction;R-D;Chien;Eau05;E2;2.0;R2;initial;1.0;2.5255354000000807
sub-14;53;41;Distraction;R-D;Table;For01;E2;2.0;R2;initial;1.0;2.267282300000261
sub-14;53;42;Distraction;R-D;Piano;Urb07;E2;3.0;R2;initial;1.0;4.084278000000268
sub-14;53;43;Distraction;R-D;Fromage;Eau06;E2;2.0;R2;initial;1.0;10.9558348999999
sub-14;53;44;Distraction;R-D;Chapeau;Cam03;E2;3.0;R2;initial;1.0;4.265521799999988
sub-14;53;45;Distraction;R-D;Ampoule;Urb01;E2;3.0;R2;initial;1.0;3.03234860000066
sub-14;53;46;Distraction;R-D;Crayon;Eau04;E2;1.0;R2;initial;1.0;3.592072499999631
sub-14;53;47;Distraction;R-D;Violon;Mon04;E2;3.0;R2;initial;1.0;2.954948699999477
sub-14;53;48;Distraction;R-D;Trompette;Eau02;E2;2.0;R2;initial;1.0;4.53154910000012
sub-14;53;49;Distraction;R-D;Moto;Nei03;E2;1.0;R2;initial;0.0;1.9430393999991795
sub-14;53;50;Distraction;R-D;Casquette;Urb03;E2;3.0;R2;initial;1.0;4.402983099999801
sub-14;53;10bis;Rest;R-D;Prise;mars-04;E1;0.0;RF;final;1.0;2.12046509999891
sub-14;53;11bis;Rest;R-D;Tracteur;For03;E1;3.0;RF;final;1.0;3.2023160999997344
sub-14;53;12bis;Rest;R-D;Marteau;Mon09;E1;1.0;RF;final;0.0;2.448823099999572
sub-14;53;13bis;Rest;R-D;Velo;Mon05;E1;3.0;RF;final;1.0;2.6654237000002468
sub-14;53;14bis;Rest;R-D;Rhinoceros;Urb04;E1;2.0;RF;final;0.0;7.056593299999804
sub-14;53;15bis;Rest;R-D;Lion;Urb09;E1;1.0;RF;final;1.0;3.943440400000327
sub-14;53;16bis;Rest;R-D;Cactus;Urb02;E1;3.0;RF;final;1.0;4.29201859999921
sub-14;53;17bis;Rest;R-D;Montre;Cam02;E1;2.0;RF;final;1.0;6.160485099999278
sub-14;53;18bis;Rest;R-D;Pain;Des03;E1;3.0;RF;final;0.0;2.8120895000010933
sub-14;53;19bis;Rest;R-D;Citron;For06;E1;1.0;RF;final;1.0;2.691213299998708
sub-14;53;1bis;Rest;R-D;Balai;Des01;E1;1.0;RF;final;1.0;2.5501340000009804
sub-14;53;20bis;Rest;R-D;Bonnet;Esp03;E1;3.0;RF;final;1.0;2.0714982000008604
sub-14;53;21bis;Rest;R-D;Cheval;Esp05;E1;3.0;RF;final;1.0;2.5153944000012416
sub-14;53;22bis;Rest;R-D;Pomme;Des02;E1;2.0;RF;final;0.0;3.0481252999998105
sub-14;53;23bis;Rest;R-D;Fraise;mars-03;E1;0.0;RF;final;0.0;8.558534100000543
sub-14;53;24bis;Rest;R-D;Voiture;Mon01;E1;2.0;RF;final;1.0;13.157195899999351
sub-14;53;25bis;Rest;R-D;Poire;Mon14;E1;2.0;RF;final;1.0;3.332953400000406
sub-14;53;26bis;Distraction;R-D;Papillon;Eau03;E2;0.0;RF;final;0.0;2.136370700000043
sub-14;53;27bis;Distraction;R-D;Ciseaux;mars-02;E2;0.0;RF;final;0.0;12.24611729999924
sub-14;53;28bis;Distraction;R-D;Tortue;Urb11;E2;0.0;RF;final;1.0;2.914297399998759
sub-14;53;29bis;Distraction;R-D;Dauphin;Urb06;E2;0.0;RF;final;1.0;2.8911822000009124
sub-14;53;2bis;Rest;R-D;Carotte;Mon06;E1;0.0;RF;final;1.0;2.920109100001355
sub-14;53;30bis;Distraction;R-D;Girafe;Nei02;E2;0.0;RF;final;1.0;3.366765499999019
sub-14;53;31bis;Distraction;R-D;Fourchette;Nei01;E2;2.0;RF;final;1.0;2.621576000001369
sub-14;53;32bis;Distraction;R-D;Sac;Des05;E2;3.0;RF;final;1.0;2.270685200001026
sub-14;53;33bis;Distraction;R-D;Cerise;Mon11;E2;0.0;RF;final;0.0;12.647613099999944
sub-14;53;34bis;Distraction;R-D;Chat;For05;E2;3.0;RF;final;1.0;1.986176999998861
sub-14;53;35bis;Distraction;R-D;Broccoli;Mon13;E2;1.0;RF;final;1.0;2.565258399999948
sub-14;53;36bis;Distraction;R-D;Stylo;Mon07;E2;1.0;RF;final;1.0;3.177671299999929
sub-14;53;37bis;Distraction;R-D;Guitare;Esp02;E2;2.0;RF;final;1.0;2.256550399999469
sub-14;53;38bis;Distraction;R-D;Pinceau;Mon12;E2;3.0;RF;final;1.0;3.3783418999992136
sub-14;53;39bis;Distraction;R-D;Tasse;Mon10;E2;2.0;RF;final;1.0;2.468298899999354
sub-14;53;3bis;Rest;R-D;Tournevis;mars-01;E1;0.0;RF;final;0.0;4.534835000000385
sub-14;53;40bis;Distraction;R-D;Chien;Eau05;E2;2.0;RF;final;1.0;2.1813074000001507
sub-14;53;41bis;Distraction;R-D;Table;For01;E2;2.0;RF;final;1.0;2.8906985000012355
sub-14;53;42bis;Distraction;R-D;Piano;Urb07;E2;3.0;RF;final;1.0;2.2788387999989936
sub-14;53;43bis;Distraction;R-D;Fromage;Eau06;E2;2.0;RF;final;1.0;4.596129700001256
sub-14;53;44bis;Distraction;R-D;Chapeau;Cam03;E2;3.0;RF;final;1.0;3.140227399999276
sub-14;53;45bis;Distraction;R-D;Ampoule;Urb01;E2;3.0;RF;final;1.0;2.802591300000131
sub-14;53;46bis;Distraction;R-D;Crayon;Eau04;E2;1.0;RF;final;1.0;5.052453600001172
sub-14;53;47bis;Distraction;R-D;Violon;Mon04;E2;3.0;RF;final;1.0;2.495085799999288
sub-14;53;48bis;Distraction;R-D;Trompette;Eau02;E2;2.0;RF;final;1.0;2.6567413000011584
sub-14;53;49bis;Distraction;R-D;Moto;Nei03;E2;1.0;RF;final;0.0;1.1840575000005629
sub-14;53;4bis;Rest;R-D;Bougie;Mon03;E1;2.0;RF;final;0.0;3.032482600001458
sub-14;53;50bis;Distraction;R-D;Casquette;Urb03;E2;3.0;RF;final;1.0;2.71263639999961
sub-14;53;5bis;Rest;R-D;Seau;Mon02;E1;2.0;RF;final;1.0;2.02878679999958
sub-14;53;6bis;Rest;R-D;Canard;Urb08;E1;2.0;RF;final;0.0;1.7810277999997195
sub-14;53;7bis;Rest;R-D;Lunettes;Des04;E1;2.0;RF;final;1.0;2.637766700001521
sub-14;53;8bis;Rest;R-D;Clef;Urb10;E1;3.0;RF;final;0.0;4.125968599999396
sub-14;53;9bis;Rest;R-D;Elephant;For04;E1;2.0;RF;final;1.0;4.237395500000275
sub-16;23;1;Rest;R-D;Tracteur;Eau06;E1;1.0;R1;initial;1.0;2.648473400000057
sub-16;23;2;Rest;R-D;Broccoli;Eau04;E1;0.0;R1;initial;0.0;12.081484499999988
sub-16;23;3;Rest;R-D;Clef;mars-04;E1;1.0;R1;initial;0.0;3.4217160000000604
sub-16;23;4;Rest;R-D;Moto;Mon13;E1;0.0;R1;initial;1.0;5.992470500000081
sub-16;23;5;Rest;R-D;Cerise;Eau02;E1;1.0;R1;initial;0.0;10.974704700000077
sub-16;23;6;Rest;R-D;Bougie;Urb01;E1;2.0;R1;initial;1.0;1.866963799999894
sub-16;23;7;Rest;R-D;Fraise;Mon06;E1;1.0;R1;initial;1.0;2.2755531999998766
sub-16;23;8;Rest;R-D;Tournevis;Mon04;E1;0.0;R1;initial;1.0;2.737988100000166
sub-16;23;9;Rest;R-D;Tasse;Urb04;E1;2.0;R1;initial;1.0;2.338671599999998
sub-16;23;10;Rest;R-D;Chapeau;Urb02;E1;3.0;R1;initial;1.0;2.743346300000212
sub-16;23;11;Rest;R-D;Chien;Mon02;E1;2.0;R1;initial;0.0;8.73143540000001
sub-16;23;12;Rest;R-D;Violon;Des01;E1;0.0;R1;initial;1.0;3.7565902999999703
sub-16;23;13;Rest;R-D;Chat;Urb07;E1;2.0;R1;initial;1.0;2.134382800000367
sub-16;23;14;Rest;R-D;Girafe;Mon07;E1;1.0;R1;initial;1.0;2.6234949999998207
sub-16;23;15;Rest;R-D;Dauphin;Des04;E1;0.0;R1;initial;1.0;2.4382104999999683
sub-16;23;16;Rest;R-D;Fourchette;Des05;E1;1.0;R1;initial;1.0;3.2700316000000385
sub-16;23;17;Rest;R-D;Prise;Mon03;E1;0.0;R1;initial;0.0;15.002593700000034
sub-16;23;18;Rest;R-D;Citron;Esp03;E1;0.0;R1;initial;1.0;2.3513483000001543
sub-16;23;19;Rest;R-D;Poire;Nei01;E1;0.0;R1;initial;1.0;2.1660980000001477
sub-16;23;20;Rest;R-D;Guitare;Mon05;E1;0.0;R1;initial;1.0;12.983901500000002
sub-16;23;21;Rest;R-D;Cheval;Cam02;E1;2.0;R1;initial;0.0;9.013174200000094
sub-16;23;22;Rest;R-D;Rhinoceros;mars-01;E1;0.0;R1;initial;0.0;12.624893300000169
sub-16;23;23;Rest;R-D;Table;Eau03;E1;0.0;R1;initial;1.0;2.393002099999876
sub-16;23;24;Rest;R-D;Trompette;Mon11;E1;0.0;R1;initial;0.0;9.883440199999768
sub-16;23;25;Rest;R-D;Voiture;Mon14;E1;0.0;R1;initial;1.0;2.266808699999956
sub-16;23;26;Distraction;R-D;Balai;Urb10;E2;1.0;R2;initial;1.0;2.006590700000288
sub-16;23;27;Distraction;R-D;Ampoule;Nei03;E2;0.0;R2;initial;1.0;7.653927599999861
sub-16;23;28;Distraction;R-D;Carotte;For04;E2;2.0;R2;initial;1.0;2.885133300000234
sub-16;23;29;Distraction;R-D;Montre;Urb06;E2;2.0;R2;initial;1.0;2.251125499999944
sub-16;23;30;Distraction;R-D;Pinceau;Mon09;E2;0.0;R2;initial;1.0;2.6340884000001097
sub-16;23;31;Distraction;R-D;Lion;Esp02;E2;0.0;R2;initial;1.0;1.7355569999999716
sub-16;23;32;Distraction;R-D;Elephant;For06;E2;0.0;R2;initial;1.0;3.049467199999981
sub-16;23;33;Distraction;R-D;Tortue;Mon10;E2;0.0;R2;initial;1.0;1.985126400000354
sub-16;23;34;Distraction;R-D;Marteau;For01;E2;0.0;R2;initial;1.0;2.5607349000001705
sub-16;23;35;Distraction;R-D;Fromage;Urb08;E2;2.0;R2;initial;1.0;3.5086404999997285
sub-16;23;36;Distraction;R-D;Ciseaux;Urb09;E2;2.0;R2;initial;1.0;2.733780300000035
sub-16;23;37;Distraction;R-D;Piano;Urb03;E2;1.0;R2;initial;1.0;1.927701299999626
sub-16;23;38;Distraction;R-D;Papillon;Eau05;E2;2.0;R2;initial;1.0;2.5595925000002357
sub-16;23;39;Distraction;R-D;Stylo;Des03;E2;0.0;R2;initial;1.0;2.051147299999684
sub-16;23;40;Distraction;R-D;Canard;mars-03;E2;1.0;R2;initial;0.0;13.03298040000027
sub-16;23;41;Distraction;R-D;Bonnet;Mon01;E2;3.0;R2;initial;1.0;1.8742426999997408
sub-16;23;42;Distraction;R-D;Crayon;For03;E2;1.0;R2;initial;1.0;3.9501444000002266
sub-16;23;43;Distraction;R-D;Casquette;For05;E2;2.0;R2;initial;1.0;2.491190199999892
sub-16;23;44;Distraction;R-D;Pain;Urb11;E2;0.0;R2;initial;1.0;1.6293807000001834
sub-16;23;45;Distraction;R-D;Pomme;Cam03;E2;2.0;R2;initial;1.0;2.0508475999999973
sub-16;23;46;Distraction;R-D;Cactus;mars-02;E2;0.0;R2;initial;1.0;2.126134799999818
sub-16;23;47;Distraction;R-D;Seau;Mon12;E2;1.0;R2;initial;1.0;2.1547378999998728
sub-16;23;48;Distraction;R-D;Velo;Nei02;E2;0.0;R2;initial;1.0;1.831442899999729
sub-16;23;49;Distraction;R-D;Sac;Des02;E2;1.0;R2;initial;1.0;2.0382423999999446
sub-16;23;50;Distraction;R-D;Lunettes;Esp05;E2;0.0;R2;initial;1.0;2.823452300000099
sub-16;23;10bis;Rest;R-D;Chapeau;Urb02;E1;3.0;RF;final;1.0;11.3754770000005
sub-16;23;11bis;Rest;R-D;Chien;Mon02;E1;2.0;RF;final;0.0;10.386443000000328
sub-16;23;12bis;Rest;R-D;Violon;Des01;E1;0.0;RF;final;1.0;4.117390300000807
sub-16;23;13bis;Rest;R-D;Chat;Urb07;E1;2.0;RF;final;1.0;1.8071062999997596
sub-16;23;14bis;Rest;R-D;Girafe;Mon07;E1;1.0;RF;final;1.0;2.338075300000128
sub-16;23;15bis;Rest;R-D;Dauphin;Des04;E1;0.0;RF;final;1.0;2.1738955999999234
sub-16;23;16bis;Rest;R-D;Fourchette;Des05;E1;1.0;RF;final;1.0;2.380577500000072
sub-16;23;17bis;Rest;R-D;Prise;Mon03;E1;0.0;RF;final;0.0;7.95700080000006
sub-16;23;18bis;Rest;R-D;Citron;Esp03;E1;0.0;RF;final;1.0;3.2657937000003585
sub-16;23;19bis;Rest;R-D;Poire;Nei01;E1;0.0;RF;final;1.0;1.678237099999933
sub-16;23;1bis;Rest;R-D;Tracteur;Eau06;E1;1.0;RF;final;1.0;2.4946985999995377
sub-16;23;20bis;Rest;R-D;Guitare;Mon05;E1;0.0;RF;final;1.0;5.150297099999989
sub-16;23;21bis;Rest;R-D;Cheval;Cam02;E1;2.0;RF;final;0.0;0.98688139999922
sub-16;23;22bis;Rest;R-D;Rhinoceros;mars-01;E1;0.0;RF;final;0.0;7.042412900000272
sub-16;23;23bis;Rest;R-D;Table;Eau03;E1;0.0;RF;final;1.0;10.773218599999382
sub-16;23;24bis;Rest;R-D;Trompette;Mon11;E1;0.0;RF;final;0.0;6.598902499999895
sub-16;23;25bis;Rest;R-D;Voiture;Mon14;E1;0.0;RF;final;1.0;1.9498962999996363
sub-16;23;26bis;Distraction;R-D;Balai;Urb10;E2;1.0;RF;final;1.0;1.6908805000002758
sub-16;23;27bis;Distraction;R-D;Ampoule;Nei03;E2;0.0;RF;final;0.0;13.636786899999606
sub-16;23;28bis;Distraction;R-D;Carotte;For04;E2;2.0;RF;final;1.0;2.51063030000023
sub-16;23;29bis;Distraction;R-D;Montre;Urb06;E2;2.0;RF;final;1.0;2.205391899999995
sub-16;23;2bis;Rest;R-D;Broccoli;Eau04;E1;0.0;RF;final;0.0;4.845795899999757
sub-16;23;30bis;Distraction;R-D;Pinceau;Mon09;E2;0.0;RF;final;1.0;2.706385699999373
sub-16;23;31bis;Distraction;R-D;Lion;Esp02;E2;0.0;RF;final;1.0;1.7130518000003576
sub-16;23;32bis;Distraction;R-D;Elephant;For06;E2;0.0;RF;final;1.0;2.4160477999994328
sub-16;23;33bis;Distraction;R-D;Tortue;Mon10;E2;0.0;RF;final;1.0;1.5035501000002114
sub-16;23;34bis;Distraction;R-D;Marteau;For01;E2;0.0;RF;final;1.0;2.6181842000005418
sub-16;23;35bis;Distraction;R-D;Fromage;Urb08;E2;2.0;RF;final;1.0;2.30788659999962
sub-16;23;36bis;Distraction;R-D;Ciseaux;Urb09;E2;2.0;RF;final;1.0;2.4391531999999643
sub-16;23;37bis;Distraction;R-D;Piano;Urb03;E2;1.0;RF;final;1.0;1.7349362000004476
sub-16;23;38bis;Distraction;R-D;Papillon;Eau05;E2;2.0;RF;final;1.0;2.51461449999988
sub-16;23;39bis;Distraction;R-D;Stylo;Des03;E2;0.0;RF;final;1.0;1.686891199999991
sub-16;23;3bis;Rest;R-D;Clef;mars-04;E1;1.0;RF;final;1.0;5.047136600000158
sub-16;23;40bis;Distraction;R-D;Canard;mars-03;E2;1.0;RF;final;0.0;6.60479740000028
sub-16;23;41bis;Distraction;R-D;Bonnet;Mon01;E2;3.0;RF;final;1.0;2.239067700000305
sub-16;23;42bis;Distraction;R-D;Crayon;For03;E2;1.0;RF;final;1.0;1.7922264999997424
sub-16;23;43bis;Distraction;R-D;Casquette;For05;E2;2.0;RF;final;1.0;3.067306599999938
sub-16;23;44bis;Distraction;R-D;Pain;Urb11;E2;0.0;RF;final;1.0;1.7952217000001838
sub-16;23;45bis;Distraction;R-D;Pomme;Cam03;E2;2.0;RF;final;1.0;1.395414200000232
sub-16;23;46bis;Distraction;R-D;Cactus;mars-02;E2;0.0;RF;final;1.0;2.3785502999999157
sub-16;23;47bis;Distraction;R-D;Seau;Mon12;E2;1.0;RF;final;1.0;1.7499661000001652
sub-16;23;48bis;Distraction;R-D;Velo;Nei02;E2;0.0;RF;final;1.0;1.9223959999999352
sub-16;23;49bis;Distraction;R-D;Sac;Des02;E2;1.0;RF;final;1.0;1.4535208000006603
sub-16;23;4bis;Rest;R-D;Moto;Mon13;E1;0.0;RF;final;1.0;1.2618618999995306
sub-16;23;50bis;Distraction;R-D;Lunettes;Esp05;E2;0.0;RF;final;1.0;2.4358321999998225
sub-16;23;5bis;Rest;R-D;Cerise;Eau02;E1;1.0;RF;final;0.0;2.331091000000015
sub-16;23;6bis;Rest;R-D;Bougie;Urb01;E1;2.0;RF;final;1.0;3.2290007000001424
sub-16;23;7bis;Rest;R-D;Fraise;Mon06;E1;1.0;RF;final;1.0;2.0683552999998938
sub-16;23;8bis;Rest;R-D;Tournevis;Mon04;E1;0.0;RF;final;1.0;2.140078300000823
sub-16;23;9bis;Rest;R-D;Tasse;Urb04;E1;2.0;RF;final;1.0;2.728636899999401
sub-19;27;1;Rest;R-D;Papillon;Esp03;E1;2.0;R1;initial;0.0;11.688647600000875
sub-19;27;2;Rest;R-D;Trompette;Des03;E1;1.0;R1;initial;1.0;5.882625900000676
sub-19;27;3;Rest;R-D;Prise;Mon06;E1;0.0;R1;initial;0.0;2.91716439999982
sub-19;27;4;Rest;R-D;Carotte;For05;E1;2.0;R1;initial;1.0;5.715451500000199
sub-19;27;5;Rest;R-D;Ampoule;Mon14;E1;0.0;R1;initial;0.0;2.031142800000453
sub-19;27;6;Rest;R-D;Cactus;Mon02;E1;0.0;R1;initial;0.0;5.986301899999944
sub-19;27;7;Rest;R-D;Tracteur;Mon07;E1;;R1;initial;1.0;3.5966001000006145
sub-19;27;8;Rest;R-D;Voiture;Des05;E1;1.0;R1;initial;1.0;2.717865599999641
sub-19;27;9;Rest;R-D;Casquette;Eau05;E1;2.0;R1;initial;1.0;4.3221246999996765
sub-19;27;10;Rest;R-D;Poire;Urb09;E1;1.0;R1;initial;1.0;1.8136665000001813
sub-19;27;11;Rest;R-D;Bougie;Des04;E1;0.0;R1;initial;1.0;2.307882599999175
sub-19;27;12;Rest;R-D;Ciseaux;Esp02;E1;0.0;R1;initial;1.0;11.38843659999975
sub-19;27;13;Rest;R-D;Crayon;For01;E1;1.0;R1;initial;0.0;9.20092109999996
sub-19;27;14;Rest;R-D;Moto;mars-04;E1;0.0;R1;initial;0.0;15.01042389999975
sub-19;27;15;Rest;R-D;Citron;Eau03;E1;1.0;R1;initial;0.0;2.746500899999773
sub-19;27;16;Rest;R-D;Elephant;Mon01;E1;1.0;R1;initial;1.0;4.292438199999651
sub-19;27;17;Rest;R-D;Broccoli;Mon12;E1;2.0;R1;initial;1.0;8.923637999999755
sub-19;27;18;Rest;R-D;Pinceau;Mon09;E1;1.0;R1;initial;1.0;7.996748299999581
sub-19;27;19;Rest;R-D;Tasse;Mon13;E1;0.0;R1;initial;0.0;15.014268300000367
sub-19;27;20;Rest;R-D;Cheval;Mon11;E1;2.0;R1;initial;1.0;3.917891500000224
sub-19;27;21;Rest;R-D;Piano;Mon03;E1;0.0;R1;initial;1.0;2.9987427999999454
sub-19;27;22;Rest;R-D;Chat;Urb03;E1;2.0;R1;initial;1.0;2.009968899999876
sub-19;27;23;Rest;R-D;Marteau;For06;E1;0.0;R1;initial;0.0;9.32583990000012
sub-19;27;24;Rest;R-D;Pomme;Cam03;E1;2.0;R1;initial;1.0;2.274155399999927
sub-19;27;25;Rest;R-D;Montre;mars-03;E1;1.0;R1;initial;1.0;3.899096400000417
sub-19;27;26;Distraction;R-D;Rhinoceros;For04;E2;2.0;R2;initial;0.0;13.539060999999492
sub-19;27;27;Distraction;R-D;Guitare;Urb08;E2;2.0;R2;initial;1.0;3.3888755999996647
sub-19;27;28;Distraction;R-D;Fromage;Nei01;E2;0.0;R2;initial;1.0;8.613811199999873
sub-19;27;29;Distraction;R-D;Clef;Mon04;E2;1.0;R2;initial;0.0;7.299664199999825
sub-19;27;30;Distraction;R-D;Violon;mars-02;E2;1.0;R2;initial;1.0;2.613346699999965
sub-19;27;31;Distraction;R-D;Lion;Cam02;E2;1.0;R2;initial;0.0;12.632733700000244
sub-19;27;32;Distraction;R-D;Chien;Nei02;E2;1.0;R2;initial;0.0;14.590123199999653
sub-19;27;33;Distraction;R-D;Canard;For03;E2;3.0;R2;initial;1.0;1.9978087999998024
sub-19;27;34;Distraction;R-D;Stylo;Urb06;E2;3.0;R2;initial;1.0;2.514286099999481
sub-19;27;35;Distraction;R-D;Cerise;Urb04;E2;2.0;R2;initial;1.0;4.4488123000001
sub-19;27;36;Distraction;R-D;Tournevis;Urb11;E2;1.0;R2;initial;1.0;3.9344922000000224
sub-19;27;37;Distraction;R-D;Bonnet;mars-01;E2;0.0;R2;initial;1.0;2.402584000000388
sub-19;27;38;Distraction;R-D;Tortue;Mon05;E2;0.0;R2;initial;1.0;3.791099399999439
sub-19;27;39;Distraction;R-D;Chapeau;Mon10;E2;1.0;R2;initial;1.0;4.6180527000005895
sub-19;27;40;Distraction;R-D;Balai;Urb10;E2;1.0;R2;initial;1.0;13.591715100000329
sub-19;27;41;Distraction;R-D;Seau;Des01;E2;1.0;R2;initial;1.0;2.550323200000093
sub-19;27;42;Distraction;R-D;Dauphin;Urb07;E2;0.0;R2;initial;1.0;2.6075702999996797
sub-19;27;43;Distraction;R-D;Pain;Eau02;E2;1.0;R2;initial;0.0;8.346066000000064
sub-19;27;44;Distraction;R-D;Velo;Esp05;E2;0.0;R2;initial;1.0;1.679227100000389
sub-19;27;45;Distraction;R-D;Table;Des02;E2;0.0;R2;initial;0.0;15.011362600000211
sub-19;27;46;Distraction;R-D;Lunettes;Urb02;E2;3.0;R2;initial;1.0;2.236522299999706
sub-19;27;47;Distraction;R-D;Fraise;Nei03;E2;0.0;R2;initial;1.0;2.2572309999995923
sub-19;27;48;Distraction;R-D;Girafe;Eau04;E2;0.0;R2;initial;1.0;3.40558400000009
sub-19;27;49;Distraction;R-D;Sac;Eau06;E2;;R2;initial;1.0;3.925669000000198
sub-19;27;50;Distraction;R-D;Fourchette;Urb01;E2;3.0;R2;initial;1.0;3.1045233000004373
sub-19;27;10bis;Rest;R-D;Poire;Urb09;E1;1.0;RF;final;1.0;0.9789697000005616
sub-19;27;11bis;Rest;R-D;Bougie;Des04;E1;0.0;RF;final;1.0;3.281349699999737
sub-19;27;12bis;Rest;R-D;Ciseaux;Esp02;E1;0.0;RF;final;1.0;7.726485000000139
sub-19;27;13bis;Rest;R-D;Crayon;For01;E1;1.0;RF;final;0.0;9.054169800000636
sub-19;27;14bis;Rest;R-D;Moto;mars-04;E1;0.0;RF;final;0.0;4.102585299999191
sub-19;27;15bis;Rest;R-D;Citron;Eau03;E1;1.0;RF;final;0.0;15.007423500000186
sub-19;27;16bis;Rest;R-D;Elephant;Mon01;E1;1.0;RF;final;1.0;2.8848395999993954
sub-19;27;17bis;Rest;R-D;Broccoli;Mon12;E1;2.0;RF;final;0.0;4.432898500000192
sub-19;27;18bis;Rest;R-D;Pinceau;Mon09;E1;1.0;RF;final;1.0;2.8524059000001216
sub-19;27;19bis;Rest;R-D;Tasse;Mon13;E1;0.0;RF;final;0.0;11.515364600000794
sub-19;27;1bis;Rest;R-D;Papillon;Esp03;E1;2.0;RF;final;0.0;14.62758500000018
sub-19;27;20bis;Rest;R-D;Cheval;Mon11;E1;2.0;RF;final;1.0;3.011886199999936
sub-19;27;21bis;Rest;R-D;Piano;Mon03;E1;0.0;RF;final;1.0;2.2726732000000998
sub-19;27;22bis;Rest;R-D;Chat;Urb03;E1;2.0;RF;final;1.0;3.469156699999985
sub-19;27;23bis;Rest;R-D;Marteau;For06;E1;0.0;RF;final;0.0;3.666991799999778
sub-19;27;24bis;Rest;R-D;Pomme;Cam03;E1;2.0;RF;final;0.0;11.235815299999558
sub-19;27;25bis;Rest;R-D;Montre;mars-03;E1;1.0;RF;final;1.0;4.0618414999999
sub-19;27;26bis;Distraction;R-D;Rhinoceros;For04;E2;2.0;RF;final;1.0;15.00006940000003
sub-19;27;27bis;Distraction;R-D;Guitare;Urb08;E2;2.0;RF;final;1.0;2.369275399999424
sub-19;27;28bis;Distraction;R-D;Fromage;Nei01;E2;0.0;RF;final;1.0;2.4497791000003417
sub-19;27;29bis;Distraction;R-D;Clef;Mon04;E2;1.0;RF;final;0.0;7.434133799999472
sub-19;27;2bis;Rest;R-D;Trompette;Des03;E1;1.0;RF;final;0.0;2.247423300000264
sub-19;27;30bis;Distraction;R-D;Violon;mars-02;E2;1.0;RF;final;1.0;2.389263799999753
sub-19;27;31bis;Distraction;R-D;Lion;Cam02;E2;1.0;RF;final;1.0;2.334798800000499
sub-19;27;32bis;Distraction;R-D;Chien;Nei02;E2;1.0;RF;final;0.0;3.680362800000694
sub-19;27;33bis;Distraction;R-D;Canard;For03;E2;3.0;RF;final;1.0;2.5140992999995437
sub-19;27;34bis;Distraction;R-D;Stylo;Urb06;E2;3.0;RF;final;1.0;1.7358287000006385
sub-19;27;35bis;Distraction;R-D;Cerise;Urb04;E2;2.0;RF;final;1.0;1.9952315000000451
sub-19;27;36bis;Distraction;R-D;Tournevis;Urb11;E2;1.0;RF;final;1.0;3.1892593000002307
sub-19;27;37bis;Distraction;R-D;Bonnet;mars-01;E2;0.0;RF;final;1.0;1.9755628000002616
sub-19;27;38bis;Distraction;R-D;Tortue;Mon05;E2;0.0;RF;final;1.0;7.543203400000493
sub-19;27;39bis;Distraction;R-D;Chapeau;Mon10;E2;1.0;RF;final;1.0;2.025945100000172
sub-19;27;3bis;Rest;R-D;Prise;Mon06;E1;0.0;RF;final;1.0;1.904657799999768
sub-19;27;40bis;Distraction;R-D;Balai;Urb10;E2;1.0;RF;final;1.0;2.798975599999721
sub-19;27;41bis;Distraction;R-D;Seau;Des01;E2;1.0;RF;final;1.0;1.9023435999997675
sub-19;27;42bis;Distraction;R-D;Dauphin;Urb07;E2;0.0;RF;final;1.0;2.766265000000203
sub-19;27;43bis;Distraction;R-D;Pain;Eau02;E2;1.0;RF;final;0.0;7.125848499999847
sub-19;27;44bis;Distraction;R-D;Velo;Esp05;E2;0.0;RF;final;1.0;0.9511947999999392
sub-19;27;45bis;Distraction;R-D;Table;Des02;E2;0.0;RF;final;0.0;10.987899100000504
sub-19;27;46bis;Distraction;R-D;Lunettes;Urb02;E2;3.0;RF;final;1.0;3.4311796000001777
sub-19;27;47bis;Distraction;R-D;Fraise;Nei03;E2;0.0;RF;final;1.0;2.132883700000093
sub-19;27;48bis;Distraction;R-D;Girafe;Eau04;E2;0.0;RF;final;1.0;2.5847211999998763
sub-19;27;49bis;Distraction;R-D;Sac;Eau06;E2;;RF;final;1.0;1.2788027000005968
sub-19;27;4bis;Rest;R-D;Carotte;For05;E1;2.0;RF;final;1.0;1.509522899999865
sub-19;27;50bis;Distraction;R-D;Fourchette;Urb01;E2;3.0;RF;final;1.0;2.3267845000000307
sub-19;27;5bis;Rest;R-D;Ampoule;Mon14;E1;0.0;RF;final;0.0;4.415783999999803
sub-19;27;6bis;Rest;R-D;Cactus;Mon02;E1;0.0;RF;final;0.0;5.32783500000005
sub-19;27;7bis;Rest;R-D;Tracteur;Mon07;E1;;RF;final;1.0;2.668408100000306
sub-19;27;8bis;Rest;R-D;Voiture;Des05;E1;1.0;RF;final;1.0;7.885096400000293
sub-19;27;9bis;Rest;R-D;Casquette;Eau05;E1;2.0;RF;final;1.0;3.292978800000128
sub-20;20;1;Distraction;D-R;Pinceau;Cam03;E1;2.0;R1;initial;1.0;3.4929456999998365
sub-20;20;2;Distraction;D-R;Dauphin;Eau05;E1;3.0;R1;initial;1.0;4.61543889999939
sub-20;20;3;Distraction;D-R;Velo;Cam02;E1;1.0;R1;initial;1.0;2.8487343999995574
sub-20;20;4;Distraction;D-R;Bougie;For06;E1;1.0;R1;initial;1.0;3.1922585000002077
sub-20;20;5;Distraction;D-R;Lion;Des04;E1;3.0;R1;initial;1.0;2.112774299999728
sub-20;20;6;Distraction;D-R;Crayon;Nei03;E1;;R1;initial;1.0;2.868446600000425
sub-20;20;7;Distraction;D-R;Marteau;Mon01;E1;1.0;R1;initial;1.0;4.195833699999639
sub-20;20;8;Distraction;D-R;Montre;Des03;E1;0.0;R1;initial;1.0;3.189901100000497
sub-20;20;9;Distraction;D-R;Ciseaux;Urb04;E1;1.0;R1;initial;1.0;4.173546899999565
sub-20;20;10;Distraction;D-R;Sac;Des05;E1;2.0;R1;initial;1.0;7.621447200000148
sub-20;20;11;Distraction;D-R;Elephant;Des02;E1;2.0;R1;initial;1.0;3.497510400000465
sub-20;20;12;Distraction;D-R;Citron;Eau03;E1;0.0;R1;initial;1.0;4.250792300000285
sub-20;20;13;Distraction;D-R;Fourchette;mars-03;E1;1.0;R1;initial;1.0;3.797334799999589
sub-20;20;14;Distraction;D-R;Poire;Mon07;E1;0.0;R1;initial;1.0;2.5255088000003525
sub-20;20;15;Distraction;D-R;Balai;Eau04;E1;1.0;R1;initial;1.0;4.981966600000305
sub-20;20;16;Distraction;D-R;Trompette;Urb02;E1;1.0;R1;initial;1.0;4.072223299999678
sub-20;20;17;Distraction;D-R;Rhinoceros;Mon13;E1;0.0;R1;initial;1.0;4.09987160000037
sub-20;20;18;Distraction;D-R;Fraise;Urb11;E1;0.0;R1;initial;1.0;2.9371286000005057
sub-20;20;19;Distraction;D-R;Guitare;Urb09;E1;1.0;R1;initial;1.0;3.0603658999998515
sub-20;20;20;Distraction;D-R;Table;Mon10;E1;0.0;R1;initial;1.0;2.8979520000002594
sub-20;20;21;Distraction;D-R;Tortue;Mon12;E1;1.0;R1;initial;1.0;2.755526900000405
sub-20;20;22;Distraction;D-R;Tasse;Mon02;E1;;R1;initial;1.0;2.4902962000005573
sub-20;20;23;Distraction;D-R;Girafe;Mon03;E1;1.0;R1;initial;1.0;4.106059499999901
sub-20;20;24;Distraction;D-R;Pomme;For03;E1;1.0;R1;initial;1.0;2.8265096000004637
sub-20;20;25;Distraction;D-R;Broccoli;Urb06;E1;0.0;R1;initial;1.0;3.124389099999462
sub-20;20;26;Rest;D-R;Tournevis;Mon04;E2;1.0;R2;initial;1.0;5.17058200000065
sub-20;20;27;Rest;D-R;Cactus;Des01;E2;3.0;R2;initial;1.0;2.389591899998777
sub-20;20;28;Rest;D-R;Fromage;Eau06;E2;0.0;R2;initial;1.0;3.510898500000621
sub-20;20;29;Rest;D-R;Seau;Esp03;E2;1.0;R2;initial;1.0;2.46020099999987
sub-20;20;30;Rest;D-R;Chien;Mon09;E2;1.0;R2;initial;1.0;1.947790799998984
sub-20;20;31;Rest;D-R;Tracteur;Nei01;E2;1.0;R2;initial;1.0;2.976551200001268
sub-20;20;32;Rest;D-R;Bonnet;Urb08;E2;3.0;R2;initial;1.0;2.453387499999735
sub-20;20;33;Rest;D-R;Casquette;Nei02;E2;2.0;R2;initial;1.0;2.973998199999187
sub-20;20;34;Rest;D-R;Canard;Eau02;E2;2.0;R2;initial;1.0;2.5129001999994216
sub-20;20;35;Rest;D-R;Pain;Urb07;E2;1.0;R2;initial;1.0;2.243554799999401
sub-20;20;36;Rest;D-R;Clef;Mon06;E2;1.0;R2;initial;1.0;2.142917299999681
sub-20;20;37;Rest;D-R;Violon;Esp05;E2;1.0;R2;initial;1.0;2.8559709999990446
sub-20;20;38;Rest;D-R;Carotte;mars-04;E2;0.0;R2;initial;1.0;2.609516700000313
sub-20;20;39;Rest;D-R;Chapeau;Urb01;E2;2.0;R2;initial;1.0;2.5089552999997977
sub-20;20;40;Rest;D-R;Ampoule;mars-02;E2;0.0;R2;initial;1.0;4.178350500000306
sub-20;20;41;Rest;D-R;Moto;For01;E2;1.0;R2;initial;1.0;1.8092586000002484
sub-20;20;42;Rest;D-R;Chat;For05;E2;2.0;R2;initial;1.0;3.0540638999991643
sub-20;20;43;Rest;D-R;Cheval;Mon14;E2;2.0;R2;initial;1.0;2.7573935000000347
sub-20;20;44;Rest;D-R;Stylo;Esp02;E2;1.0;R2;initial;1.0;2.346456899998884
sub-20;20;45;Rest;D-R;Papillon;For04;E2;2.0;R2;initial;1.0;2.9166101999999228
sub-20;20;46;Rest;D-R;Prise;mars-01;E2;0.0;R2;initial;1.0;2.504910100000416
sub-20;20;47;Rest;D-R;Cerise;Mon05;E2;0.0;R2;initial;1.0;2.6168096999990667
sub-20;20;48;Rest;D-R;Piano;Urb10;E2;0.0;R2;initial;1.0;2.5536480999999185
sub-20;20;49;Rest;D-R;Voiture;Mon11;E2;1.0;R2;initial;1.0;3.2062215999994805
sub-20;20;50;Rest;D-R;Lunettes;Urb03;E2;3.0;R2;initial;1.0;2.4912188999987848
sub-20;20;10bis;Distraction;D-R;Sac;Des05;E1;2.0;RF;final;1.0;1.7802248999996664
sub-20;20;11bis;Distraction;D-R;Elephant;Des02;E1;2.0;RF;final;1.0;2.951068000000305
sub-20;20;12bis;Distraction;D-R;Citron;Eau03;E1;0.0;RF;final;1.0;3.0458518999985245
sub-20;20;13bis;Distraction;D-R;Fourchette;mars-03;E1;1.0;RF;final;1.0;4.398416799998813
sub-20;20;14bis;Distraction;D-R;Poire;Mon07;E1;0.0;RF;final;1.0;2.3269935000007536
sub-20;20;15bis;Distraction;D-R;Balai;Eau04;E1;1.0;RF;final;1.0;3.346482499999184
sub-20;20;16bis;Distraction;D-R;Trompette;Urb02;E1;1.0;RF;final;1.0;3.622446399998808
sub-20;20;17bis;Distraction;D-R;Rhinoceros;Mon13;E1;0.0;RF;final;1.0;4.456520000001547
sub-20;20;18bis;Distraction;D-R;Fraise;Urb11;E1;0.0;RF;final;1.0;2.3398653000003837
sub-20;20;19bis;Distraction;D-R;Guitare;Urb09;E1;1.0;RF;final;1.0;2.6474699999998847
sub-20;20;1bis;Distraction;D-R;Pinceau;Cam03;E1;2.0;RF;final;1.0;3.019987800000308
sub-20;20;20bis;Distraction;D-R;Table;Mon10;E1;0.0;RF;final;1.0;2.32782589999988
sub-20;20;21bis;Distraction;D-R;Tortue;Mon12;E1;1.0;RF;final;1.0;3.469681599999604
sub-20;20;22bis;Distraction;D-R;Tasse;Mon02;E1;;RF;final;1.0;1.715157599999657
sub-20;20;23bis;Distraction;D-R;Girafe;Mon03;E1;1.0;RF;final;1.0;2.515416899999764
sub-20;20;24bis;Distraction;D-R;Pomme;For03;E1;1.0;RF;final;1.0;2.20485749999898
sub-20;20;25bis;Distraction;D-R;Broccoli;Urb06;E1;0.0;RF;final;1.0;2.8706177999993088
sub-20;20;26bis;Rest;D-R;Tournevis;Mon04;E2;1.0;RF;final;1.0;4.930309100000159
sub-20;20;27bis;Rest;D-R;Cactus;Des01;E2;3.0;RF;final;1.0;2.80230660000052
sub-20;20;28bis;Rest;D-R;Fromage;Eau06;E2;0.0;RF;final;1.0;4.026805999999851
sub-20;20;29bis;Rest;D-R;Seau;Esp03;E2;1.0;RF;final;1.0;3.3603015999997297
sub-20;20;2bis;Distraction;D-R;Dauphin;Eau05;E1;3.0;RF;final;1.0;3.457677700000204
sub-20;20;30bis;Rest;D-R;Chien;Mon09;E2;1.0;RF;final;1.0;2.0375189000005776
sub-20;20;31bis;Rest;D-R;Tracteur;Nei01;E2;1.0;RF;final;1.0;3.879622300000847
sub-20;20;32bis;Rest;D-R;Bonnet;Urb08;E2;3.0;RF;final;1.0;2.5018122000001317
sub-20;20;33bis;Rest;D-R;Casquette;Nei02;E2;2.0;RF;final;1.0;2.8115649000010308
sub-20;20;34bis;Rest;D-R;Canard;Eau02;E2;2.0;RF;final;1.0;2.503640599999926
sub-20;20;35bis;Rest;D-R;Pain;Urb07;E2;1.0;RF;final;1.0;2.3133077999991656
sub-20;20;36bis;Rest;D-R;Clef;Mon06;E2;1.0;RF;final;1.0;1.9197832999998357
sub-20;20;37bis;Rest;D-R;Violon;Esp05;E2;1.0;RF;final;1.0;2.4427895000007998
sub-20;20;38bis;Rest;D-R;Carotte;mars-04;E2;0.0;RF;final;1.0;2.875644499999908
sub-20;20;39bis;Rest;D-R;Chapeau;Urb01;E2;2.0;RF;final;1.0;3.4619357000010496
sub-20;20;3bis;Distraction;D-R;Velo;Cam02;E1;1.0;RF;final;1.0;2.281844400000409
sub-20;20;40bis;Rest;D-R;Ampoule;mars-02;E2;0.0;RF;final;1.0;4.856842699999106
sub-20;20;41bis;Rest;D-R;Moto;For01;E2;1.0;RF;final;1.0;2.22550819999924
sub-20;20;42bis;Rest;D-R;Chat;For05;E2;2.0;RF;final;1.0;1.8001519000008557
sub-20;20;43bis;Rest;D-R;Cheval;Mon14;E2;2.0;RF;final;1.0;4.178746700001284
sub-20;20;44bis;Rest;D-R;Stylo;Esp02;E2;1.0;RF;final;1.0;2.5277870999998413
sub-20;20;45bis;Rest;D-R;Papillon;For04;E2;2.0;RF;final;1.0;3.1712230000011914
sub-20;20;46bis;Rest;D-R;Prise;mars-01;E2;0.0;RF;final;1.0;4.227294500000426
sub-20;20;47bis;Rest;D-R;Cerise;Mon05;E2;0.0;RF;final;1.0;2.946038199999748
sub-20;20;48bis;Rest;D-R;Piano;Urb10;E2;0.0;RF;final;1.0;2.315397500000472
sub-20;20;49bis;Rest;D-R;Voiture;Mon11;E2;1.0;RF;final;1.0;2.438423300000068
sub-20;20;4bis;Distraction;D-R;Bougie;For06;E1;1.0;RF;final;1.0;2.769247500000347
sub-20;20;50bis;Rest;D-R;Lunettes;Urb03;E2;3.0;RF;final;1.0;3.094365299999481
sub-20;20;5bis;Distraction;D-R;Lion;Des04;E1;3.0;RF;final;1.0;1.9306549999982965
sub-20;20;6bis;Distraction;D-R;Crayon;Nei03;E1;;RF;final;1.0;2.775349199999255
sub-20;20;7bis;Distraction;D-R;Marteau;Mon01;E1;1.0;RF;final;1.0;3.9121593999989273
sub-20;20;8bis;Distraction;D-R;Montre;Des03;E1;0.0;RF;final;1.0;2.9329510999996278
sub-20;20;9bis;Distraction;D-R;Ciseaux;Urb04;E1;1.0;RF;final;1.0;2.7672543999997288
sub-22;34;1;Distraction;D-R;Velo;For01;E1;;R1;initial;1.0;2.358052800002042
sub-22;34;2;Distraction;D-R;Tortue;Urb04;E1;3.0;R1;initial;1.0;2.7613112999970326
sub-22;34;3;Distraction;D-R;Chapeau;For03;E1;3.0;R1;initial;1.0;3.366799199997331
sub-22;34;4;Distraction;D-R;Balai;Mon02;E1;2.0;R1;initial;1.0;6.950011799999629
sub-22;34;5;Distraction;D-R;Ampoule;Eau04;E1;1.0;R1;initial;1.0;6.1238806000037584
sub-22;34;6;Distraction;D-R;Dauphin;Urb11;E1;0.0;R1;initial;1.0;5.515942700003507
sub-22;34;7;Distraction;D-R;Casquette;Urb10;E1;3.0;R1;initial;1.0;3.43267310000374
sub-22;34;8;Distraction;D-R;Prise;Des02;E1;0.0;R1;initial;1.0;4.0958743999945
sub-22;34;9;Distraction;D-R;Cactus;Eau06;E1;3.0;R1;initial;1.0;3.165783800010104
sub-22;34;10;Distraction;D-R;Table;mars-04;E1;0.0;R1;initial;1.0;2.4566782000038074
sub-22;34;11;Distraction;D-R;Canard;For06;E1;3.0;R1;initial;1.0;2.7747186000051443
sub-22;34;12;Distraction;D-R;Voiture;Esp03;E1;1.0;R1;initial;1.0;2.2315324999945005
sub-22;34;13;Distraction;D-R;Tracteur;Urb08;E1;3.0;R1;initial;1.0;3.354116599992267
sub-22;34;14;Distraction;D-R;Girafe;Mon13;E1;3.0;R1;initial;1.0;3.143216199998278
sub-22;34;15;Distraction;D-R;Violon;Nei03;E1;1.0;R1;initial;1.0;5.492552700001397
sub-22;34;16;Distraction;D-R;Stylo;Eau03;E1;1.0;R1;initial;1.0;4.220511400009855
sub-22;34;17;Distraction;D-R;Carotte;Mon11;E1;1.0;R1;initial;1.0;5.6071609999926295
sub-22;34;18;Distraction;D-R;Bougie;Mon05;E1;1.0;R1;initial;1.0;2.8544994999974733
sub-22;34;19;Distraction;D-R;Moto;Mon09;E1;3.0;R1;initial;1.0;2.295669999992242
sub-22;34;20;Distraction;D-R;Tasse;For05;E1;2.0;R1;initial;1.0;2.615437700005714
sub-22;34;21;Distraction;D-R;Crayon;Nei01;E1;1.0;R1;initial;1.0;3.94124240000383
sub-22;34;22;Distraction;D-R;Poire;Eau02;E1;0.0;R1;initial;1.0;2.335678999996162
sub-22;34;23;Distraction;D-R;Piano;Cam02;E1;0.0;R1;initial;1.0;3.56064619999961
sub-22;34;24;Distraction;D-R;Cheval;Mon01;E1;3.0;R1;initial;1.0;3.861181000000215
sub-22;34;25;Distraction;D-R;Fourchette;Mon12;E1;2.0;R1;initial;1.0;5.435956800007261
sub-22;34;26;Rest;D-R;Lion;Cam03;E2;1.0;R2;initial;1.0;1.9576569000055315
sub-22;34;27;Rest;D-R;Marteau;Nei02;E2;3.0;R2;initial;1.0;2.946043000003556
sub-22;34;28;Rest;D-R;Sac;Mon07;E2;2.0;R2;initial;1.0;2.62215360000846
sub-22;34;29;Rest;D-R;Fraise;Urb02;E2;2.0;R2;initial;1.0;3.165288699994562
sub-22;34;30;Rest;D-R;Cerise;Urb01;E2;0.0;R2;initial;1.0;4.357472299991059
sub-22;34;31;Rest;D-R;Montre;Mon03;E2;3.0;R2;initial;1.0;3.128398400003789
sub-22;34;32;Rest;D-R;Ciseaux;Esp02;E2;1.0;R2;initial;0.0;15.007934699999169
sub-22;34;33;Rest;D-R;Elephant;Mon14;E2;3.0;R2;initial;1.0;3.0308734999998705
sub-22;34;34;Rest;D-R;Tournevis;Des05;E2;0.0;R2;initial;1.0;3.893820000012056
sub-22;34;35;Rest;D-R;Pinceau;Mon04;E2;2.0;R2;initial;1.0;3.685053799999878
sub-22;34;36;Rest;D-R;Pain;Des01;E2;0.0;R2;initial;1.0;2.359704699993017
sub-22;34;37;Rest;D-R;Fromage;Urb06;E2;0.0;R2;initial;1.0;3.637054500009981
sub-22;34;38;Rest;D-R;Citron;Urb07;E2;0.0;R2;initial;1.0;2.3053782999922987
sub-22;34;39;Rest;D-R;Rhinoceros;Urb03;E2;0.0;R2;initial;1.0;4.317272599990247
sub-22;34;40;Rest;D-R;Guitare;Mon06;E2;2.0;R2;initial;1.0;2.240921799995704
sub-22;34;41;Rest;D-R;Trompette;For04;E2;2.0;R2;initial;1.0;3.700224199987133
sub-22;34;42;Rest;D-R;Clef;mars-02;E2;2.0;R2;initial;1.0;2.156147999994573
sub-22;34;43;Rest;D-R;Lunettes;Mon10;E2;0.0;R2;initial;1.0;2.8367130999977235
sub-22;34;44;Rest;D-R;Bonnet;Eau05;E2;3.0;R2;initial;1.0;3.002594499994302
sub-22;34;45;Rest;D-R;Chat;mars-01;E2;0.0;R2;initial;1.0;2.1534040000115056
sub-22;34;46;Rest;D-R;Chien;Des03;E2;3.0;R2;initial;1.0;2.1241003000031924
sub-22;34;47;Rest;D-R;Seau;Esp05;E2;0.0;R2;initial;1.0;2.291256600001361
sub-22;34;48;Rest;D-R;Pomme;Urb09;E2;0.0;R2;initial;1.0;3.1680262999871047
sub-22;34;49;Rest;D-R;Papillon;Des04;E2;1.0;R2;initial;1.0;3.2551295000012037
sub-22;34;50;Rest;D-R;Broccoli;mars-03;E2;0.0;R2;initial;1.0;4.048322799993912
sub-22;34;10bis;Distraction;D-R;Table;mars-04;E1;0.0;RF;final;1.0;2.415173599991249
sub-22;34;11bis;Distraction;D-R;Canard;For06;E1;3.0;RF;final;1.0;1.981482600007439
sub-22;34;12bis;Distraction;D-R;Voiture;Esp03;E1;1.0;RF;final;1.0;2.3632963999989443
sub-22;34;13bis;Distraction;D-R;Tracteur;Urb08;E1;3.0;RF;final;1.0;3.064157899993006
sub-22;34;14bis;Distraction;D-R;Girafe;Mon13;E1;3.0;RF;final;1.0;1.9240858999983173
sub-22;34;15bis;Distraction;D-R;Violon;Nei03;E1;1.0;RF;final;1.0;2.7571630999882477
sub-22;34;16bis;Distraction;D-R;Stylo;Eau03;E1;1.0;RF;final;1.0;1.414004100006423
sub-22;34;17bis;Distraction;D-R;Carotte;Mon11;E1;1.0;RF;final;1.0;3.8294881000038
sub-22;34;18bis;Distraction;D-R;Bougie;Mon05;E1;1.0;RF;final;1.0;2.903174399994896
sub-22;34;19bis;Distraction;D-R;Moto;Mon09;E1;3.0;RF;final;1.0;2.167712800001027
sub-22;34;1bis;Distraction;D-R;Velo;For01;E1;;RF;final;1.0;3.0874972000019625
sub-22;34;20bis;Distraction;D-R;Tasse;For05;E1;2.0;RF;final;1.0;2.016130799995153
sub-22;34;21bis;Distraction;D-R;Crayon;Nei01;E1;1.0;RF;final;1.0;3.166956899993238
sub-22;34;22bis;Distraction;D-R;Poire;Eau02;E1;0.0;RF;final;1.0;2.088350499994704
sub-22;34;23bis;Distraction;D-R;Piano;Cam02;E1;0.0;RF;final;1.0;2.592694299994037
sub-22;34;24bis;Distraction;D-R;Cheval;Mon01;E1;3.0;RF;final;1.0;2.6271510000078706
sub-22;34;25bis;Distraction;D-R;Fourchette;Mon12;E1;2.0;RF;final;1.0;2.8503613999928348
sub-22;34;26bis;Rest;D-R;Lion;Cam03;E2;1.0;RF;final;1.0;1.359494199990877
sub-22;34;27bis;Rest;D-R;Marteau;Nei02;E2;3.0;RF;final;1.0;2.271319400009816
sub-22;34;28bis;Rest;D-R;Sac;Mon07;E2;2.0;RF;final;1.0;1.1734569999971427
sub-22;34;29bis;Rest;D-R;Fraise;Urb02;E2;2.0;RF;final;1.0;2.430667000007816
sub-22;34;2bis;Distraction;D-R;Tortue;Urb04;E1;3.0;RF;final;1.0;4.879310899996199
sub-22;34;30bis;Rest;D-R;Cerise;Urb01;E2;0.0;RF;final;1.0;2.5449222000024747
sub-22;34;31bis;Rest;D-R;Montre;Mon03;E2;3.0;RF;final;1.0;2.181903999997303
sub-22;34;32bis;Rest;D-R;Ciseaux;Esp02;E2;1.0;RF;final;0.0;3.733447500009788
sub-22;34;33bis;Rest;D-R;Elephant;Mon14;E2;3.0;RF;final;1.0;2.947905299995909
sub-22;34;34bis;Rest;D-R;Tournevis;Des05;E2;0.0;RF;final;1.0;2.9641587999940384
sub-22;34;35bis;Rest;D-R;Pinceau;Mon04;E2;2.0;RF;final;1.0;3.288401400001021
sub-22;34;36bis;Rest;D-R;Pain;Des01;E2;0.0;RF;final;1.0;1.7523140999983298
sub-22;34;37bis;Rest;D-R;Fromage;Urb06;E2;0.0;RF;final;1.0;3.807497700006934
sub-22;34;38bis;Rest;D-R;Citron;Urb07;E2;0.0;RF;final;1.0;1.6314494000107516
sub-22;34;39bis;Rest;D-R;Rhinoceros;Urb03;E2;0.0;RF;final;1.0;3.954997399996501
sub-22;34;3bis;Distraction;D-R;Chapeau;For03;E1;3.0;RF;final;1.0;2.72248139999283
sub-22;34;40bis;Rest;D-R;Guitare;Mon06;E2;2.0;RF;final;1.0;2.6811110000126064
sub-22;34;41bis;Rest;D-R;Trompette;For04;E2;2.0;RF;final;1.0;2.887726100001601
sub-22;34;42bis;Rest;D-R;Clef;mars-02;E2;2.0;RF;final;1.0;3.142455100009101
sub-22;34;43bis;Rest;D-R;Lunettes;Mon10;E2;0.0;RF;final;1.0;2.3197710999957053
sub-22;34;44bis;Rest;D-R;Bonnet;Eau05;E2;3.0;RF;final;1.0;2.0308443999965675
sub-22;34;45bis;Rest;D-R;Chat;mars-01;E2;0.0;RF;final;1.0;1.6478194000083022
sub-22;34;46bis;Rest;D-R;Chien;Des03;E2;3.0;RF;final;1.0;2.2679119000094943
sub-22;34;47bis;Rest;D-R;Seau;Esp05;E2;0.0;RF;final;1.0;2.036221899994416
sub-22;34;48bis;Rest;D-R;Pomme;Urb09;E2;0.0;RF;final;1.0;1.826639899998554
sub-22;34;49bis;Rest;D-R;Papillon;Des04;E2;1.0;RF;final;1.0;2.751128500007326
sub-22;34;4bis;Distraction;D-R;Balai;Mon02;E1;2.0;RF;final;1.0;2.4254338999890024
sub-22;34;50bis;Rest;D-R;Broccoli;mars-03;E2;0.0;RF;final;1.0;2.945546199989621
sub-22;34;5bis;Distraction;D-R;Ampoule;Eau04;E1;1.0;RF;final;1.0;2.650175400005537
sub-22;34;6bis;Distraction;D-R;Dauphin;Urb11;E1;0.0;RF;final;1.0;2.675825099999201
sub-22;34;7bis;Distraction;D-R;Casquette;Urb10;E1;3.0;RF;final;1.0;2.876165299996501
sub-22;34;8bis;Distraction;D-R;Prise;Des02;E1;0.0;RF;final;1.0;3.368375100006233
sub-22;34;9bis;Distraction;D-R;Cactus;Eau06;E1;3.0;RF;final;1.0;1.972483799996553
sub-23;48;1;Rest;R-D;Montre;Nei01;E1;1.0;R1;initial;1.0;3.1156148
sub-23;48;2;Rest;R-D;Lunettes;mars-04;E1;0.0;R1;initial;1.0;3.5257363
sub-23;48;3;Rest;R-D;Cerise;Mon01;E1;3.0;R1;initial;1.0;2.6538167
sub-23;48;4;Rest;R-D;Casquette;For03;E1;2.0;R1;initial;1.0;2.9160679
sub-23;48;5;Rest;R-D;Fourchette;Cam02;E1;1.0;R1;initial;1.0;3.0758611
sub-23;48;6;Rest;R-D;Pain;Des04;E1;0.0;R1;initial;1.0;1.947053
sub-23;48;7;Rest;R-D;Moto;Urb09;E1;3.0;R1;initial;1.0;2.3830153
sub-23;48;8;Rest;R-D;Velo;Eau06;E1;3.0;R1;initial;1.0;4.2261454
sub-23;48;9;Rest;R-D;Piano;For06;E1;1.0;R1;initial;1.0;2.8287828
sub-23;48;10;Rest;R-D;Marteau;Des01;E1;0.0;R1;initial;1.0;3.8613646
sub-23;48;11;Rest;R-D;Table;Eau04;E1;0.0;R1;initial;1.0;2.4203652
sub-23;48;12;Rest;R-D;Bonnet;Mon13;E1;1.0;R1;initial;1.0;2.562418
sub-23;48;13;Rest;R-D;Elephant;Des05;E1;0.0;R1;initial;1.0;2.88099
sub-23;48;14;Rest;R-D;Tortue;Mon14;E1;2.0;R1;initial;0.0;15.0007328
sub-23;48;15;Rest;R-D;Citron;Des03;E1;2.0;R1;initial;1.0;3.4545289
sub-23;48;16;Rest;R-D;Tasse;Urb11;E1;1.0;R1;initial;1.0;3.1796129
sub-23;48;17;Rest;R-D;Papillon;Mon05;E1;3.0;R1;initial;1.0;4.4441486
sub-23;48;18;Rest;R-D;Stylo;Urb10;E1;3.0;R1;initial;1.0;2.691037
sub-23;48;19;Rest;R-D;Clef;Nei03;E1;0.0;R1;initial;1.0;7.8505342
sub-23;48;20;Rest;R-D;Tournevis;Mon06;E1;0.0;R1;initial;1.0;8.7506864
sub-23;48;21;Rest;R-D;Violon;Urb02;E1;2.0;R1;initial;1.0;3.2440893
sub-23;48;22;Rest;R-D;Ampoule;Urb04;E1;3.0;R1;initial;1.0;4.9993474
sub-23;48;23;Rest;R-D;Carotte;Mon11;E1;1.0;R1;initial;1.0;5.1397648
sub-23;48;24;Rest;R-D;Rhinoceros;Mon04;E1;0.0;R1;initial;0.0;9.8109468
sub-23;48;25;Rest;R-D;Crayon;Esp05;E1;0.0;R1;initial;1.0;2.8618455
sub-23;48;26;Distraction;R-D;Canard;Urb07;E2;1.0;R2;initial;1.0;2.6759551
sub-23;48;27;Distraction;R-D;Sac;Esp02;E2;0.0;R2;initial;1.0;1.7092679
sub-23;48;28;Distraction;R-D;Prise;Mon12;E2;0.0;R2;initial;1.0;2.8044993
sub-23;48;29;Distraction;R-D;Chat;Eau05;E2;3.0;R2;initial;1.0;1.7889791
sub-23;48;30;Distraction;R-D;Voiture;mars-02;E2;0.0;R2;initial;1.0;8.3799686
sub-23;48;31;Distraction;R-D;Seau;Urb08;E2;2.0;R2;initial;1.0;2.2052252
sub-23;48;32;Distraction;R-D;Dauphin;mars-01;E2;3.0;R2;initial;1.0;2.7749395
sub-23;48;33;Distraction;R-D;Ciseaux;Des02;E2;0.0;R2;initial;1.0;3.1352805
sub-23;48;34;Distraction;R-D;Lion;Urb01;E2;0.0;R2;initial;1.0;2.3690638
sub-23;48;35;Distraction;R-D;Chapeau;Esp03;E2;1.0;R2;initial;1.0;3.2014002
sub-23;48;36;Distraction;R-D;Cheval;Mon10;E2;0.0;R2;initial;1.0;3.965993
sub-23;48;37;Distraction;R-D;Poire;For04;E2;1.0;R2;initial;1.0;2.3823743
sub-23;48;38;Distraction;R-D;Girafe;For05;E2;0.0;R2;initial;1.0;3.2974999
sub-23;48;39;Distraction;R-D;Chien;Cam03;E2;3.0;R2;initial;1.0;2.8757915
sub-23;48;40;Distraction;R-D;Pinceau;For01;E2;2.0;R2;initial;1.0;3.6418841
sub-23;48;41;Distraction;R-D;Bougie;Mon03;E2;1.0;R2;initial;1.0;2.3663261
sub-23;48;42;Distraction;R-D;Broccoli;Nei02;E2;0.0;R2;initial;1.0;3.14376
sub-23;48;43;Distraction;R-D;Pomme;Mon09;E2;2.0;R2;initial;1.0;2.3652962
sub-23;48;44;Distraction;R-D;Fromage;Mon07;E2;0.0;R2;initial;1.0;4.1589904
sub-23;48;45;Distraction;R-D;Fraise;Eau03;E2;0.0;R2;initial;1.0;2.1497312
sub-23;48;46;Distraction;R-D;Tracteur;Mon02;E2;3.0;R2;initial;1.0;3.581907
sub-23;48;47;Distraction;R-D;Cactus;Urb06;E2;3.0;R2;initial;1.0;2.5989268
sub-23;48;48;Distraction;R-D;Guitare;mars-03;E2;0.0;R2;initial;1.0;4.148344
sub-23;48;49;Distraction;R-D;Balai;Eau02;E2;0.0;R2;initial;1.0;2.3585026
sub-23;48;50;Distraction;R-D;Trompette;Urb03;E2;3.0;R2;initial;1.0;4.9236566
sub-23;48;10bis;Rest;R-D;Marteau;Des01;E1;0.0;RF;final;1.0;2.7397071
sub-23;48;11bis;Rest;R-D;Table;Eau04;E1;0.0;RF;final;1.0;2.2847351
sub-23;48;12bis;Rest;R-D;Bonnet;Mon13;E1;1.0;RF;final;1.0;2.2326905
sub-23;48;13bis;Rest;R-D;Elephant;Des05;E1;0.0;RF;final;1.0;2.7360818
sub-23;48;14bis;Rest;R-D;Tortue;Mon14;E1;2.0;RF;final;1.0;2.7281329
sub-23;48;15bis;Rest;R-D;Citron;Des03;E1;2.0;RF;final;1.0;2.6917696
sub-23;48;16bis;Rest;R-D;Tasse;Urb11;E1;1.0;RF;final;1.0;1.9687965
sub-23;48;17bis;Rest;R-D;Papillon;Mon05;E1;3.0;RF;final;1.0;2.8497806
sub-23;48;18bis;Rest;R-D;Stylo;Urb10;E1;3.0;RF;final;1.0;2.5812836
sub-23;48;19bis;Rest;R-D;Clef;Nei03;E1;0.0;RF;final;0.0;7.4390967
sub-23;48;1bis;Rest;R-D;Montre;Nei01;E1;1.0;RF;final;1.0;2.4891948
sub-23;48;20bis;Rest;R-D;Tournevis;Mon06;E1;0.0;RF;final;1.0;3.6015518
sub-23;48;21bis;Rest;R-D;Violon;Urb02;E1;2.0;RF;final;1.0;2.6015354
sub-23;48;22bis;Rest;R-D;Ampoule;Urb04;E1;3.0;RF;final;1.0;2.6859136
sub-23;48;23bis;Rest;R-D;Carotte;Mon11;E1;1.0;RF;final;1.0;5.2861296
sub-23;48;24bis;Rest;R-D;Rhinoceros;Mon04;E1;0.0;RF;final;0.0;2.420328
sub-23;48;25bis;Rest;R-D;Crayon;Esp05;E1;0.0;RF;final;1.0;3.4195144
sub-23;48;26bis;Distraction;R-D;Canard;Urb07;E2;1.0;RF;final;1.0;2.365509
sub-23;48;27bis;Distraction;R-D;Sac;Esp02;E2;0.0;RF;final;1.0;3.2460766
sub-23;48;28bis;Distraction;R-D;Prise;Mon12;E2;0.0;RF;final;1.0;2.1883568
sub-23;48;29bis;Distraction;R-D;Chat;Eau05;E2;3.0;RF;final;1.0;1.8746817
sub-23;48;2bis;Rest;R-D;Lunettes;mars-04;E1;0.0;RF;final;1.0;2.6359794
sub-23;48;30bis;Distraction;R-D;Voiture;mars-02;E2;0.0;RF;final;1.0;2.4143004
sub-23;48;31bis;Distraction;R-D;Seau;Urb08;E2;2.0;RF;final;1.0;2.5008571
sub-23;48;32bis;Distraction;R-D;Dauphin;mars-01;E2;3.0;RF;final;1.0;3.0996017
sub-23;48;33bis;Distraction;R-D;Ciseaux;Des02;E2;0.0;RF;final;1.0;4.2039435
sub-23;48;34bis;Distraction;R-D;Lion;Urb01;E2;0.0;RF;final;1.0;2.1886373
sub-23;48;35bis;Distraction;R-D;Chapeau;Esp03;E2;1.0;RF;final;1.0;2.4549967
sub-23;48;36bis;Distraction;R-D;Cheval;Mon10;E2;0.0;RF;final;1.0;2.226257
sub-23;48;37bis;Distraction;R-D;Poire;For04;E2;1.0;RF;final;1.0;2.0416231
sub-23;48;38bis;Distraction;R-D;Girafe;For05;E2;0.0;RF;final;1.0;2.7860321
sub-23;48;39bis;Distraction;R-D;Chien;Cam03;E2;3.0;RF;final;1.0;2.5086464
sub-23;48;3bis;Rest;R-D;Cerise;Mon01;E1;3.0;RF;final;1.0;3.6147251
sub-23;48;40bis;Distraction;R-D;Pinceau;For01;E2;2.0;RF;final;1.0;3.3461907
sub-23;48;41bis;Distraction;R-D;Bougie;Mon03;E2;1.0;RF;final;1.0;2.5192367
sub-23;48;42bis;Distraction;R-D;Broccoli;Nei02;E2;0.0;RF;final;1.0;3.6106437
sub-23;48;43bis;Distraction;R-D;Pomme;Mon09;E2;2.0;RF;final;1.0;2.0300222
sub-23;48;44bis;Distraction;R-D;Fromage;Mon07;E2;0.0;RF;final;1.0;2.9670486
sub-23;48;45bis;Distraction;R-D;Fraise;Eau03;E2;0.0;RF;final;1.0;2.2321619
sub-23;48;46bis;Distraction;R-D;Tracteur;Mon02;E2;3.0;RF;final;1.0;2.8957862
sub-23;48;47bis;Distraction;R-D;Cactus;Urb06;E2;3.0;RF;final;1.0;2.6048507
sub-23;48;48bis;Distraction;R-D;Guitare;mars-03;E2;0.0;RF;final;1.0;2.7871517
sub-23;48;49bis;Distraction;R-D;Balai;Eau02;E2;0.0;RF;final;1.0;2.1234849
sub-23;48;4bis;Rest;R-D;Casquette;For03;E1;2.0;RF;final;1.0;2.976934
sub-23;48;50bis;Distraction;R-D;Trompette;Urb03;E2;3.0;RF;final;1.0;2.6268147
sub-23;48;5bis;Rest;R-D;Fourchette;Cam02;E1;1.0;RF;final;1.0;3.8615756
sub-23;48;6bis;Rest;R-D;Pain;Des04;E1;0.0;RF;final;1.0;2.1998849
sub-23;48;7bis;Rest;R-D;Moto;Urb09;E1;3.0;RF;final;1.0;1.9340324
sub-23;48;8bis;Rest;R-D;Velo;Eau06;E1;3.0;RF;final;1.0;2.5350117
sub-23;48;9bis;Rest;R-D;Piano;For06;E1;1.0;RF;final;1.0;2.617477
sub-24;37;1;Distraction;D-R;Rhinoceros;Des01;E1;2.0;R1;initial;1.0;5.920717399989371
sub-24;37;2;Distraction;D-R;Marteau;Urb06;E1;3.0;R1;initial;0.0;15.001813499999116
sub-24;37;3;Distraction;D-R;Fromage;Urb11;E1;3.0;R1;initial;1.0;3.3720618999941507
sub-24;37;4;Distraction;D-R;Bougie;Eau06;E1;1.0;R1;initial;1.0;5.828391600007308
sub-24;37;5;Distraction;D-R;Fourchette;Urb07;E1;3.0;R1;initial;1.0;10.545099900002242
sub-24;37;6;Distraction;D-R;Chat;Mon04;E1;2.0;R1;initial;1.0;2.7875378000026103
sub-24;37;7;Distraction;D-R;Tournevis;Mon06;E1;2.0;R1;initial;0.0;8.251362099996186
sub-24;37;8;Distraction;D-R;Lunettes;Urb10;E1;3.0;R1;initial;0.0;10.7005574000068
sub-24;37;9;Distraction;D-R;Poire;Eau05;E1;2.0;R1;initial;0.0;14.689145700001973
sub-24;37;10;Distraction;D-R;Tracteur;Eau02;E1;0.0;R1;initial;0.0;15.000647699998808
sub-24;37;11;Distraction;D-R;Tasse;Urb03;E1;3.0;R1;initial;0.0;15.009821600004216
sub-24;37;12;Distraction;D-R;Pomme;mars-02;E1;1.0;R1;initial;1.0;3.5311217000125907
sub-24;37;13;Distraction;D-R;Ampoule;Mon05;E1;0.0;R1;initial;0.0;15.012811599997804
sub-24;37;14;Distraction;D-R;Tortue;mars-03;E1;3.0;R1;initial;1.0;7.97786489999271
sub-24;37;15;Distraction;D-R;Crayon;Nei03;E1;2.0;R1;initial;1.0;11.957746000000045
sub-24;37;16;Distraction;D-R;Pinceau;Mon07;E1;1.0;R1;initial;1.0;10.347166499996092
sub-24;37;17;Distraction;D-R;Stylo;Urb01;E1;3.0;R1;initial;1.0;4.186002699992969
sub-24;37;18;Distraction;D-R;Piano;Mon11;E1;0.0;R1;initial;1.0;2.5940134999982547
sub-24;37;19;Distraction;D-R;Casquette;For01;E1;1.0;R1;initial;1.0;9.415534300002037
sub-24;37;20;Distraction;D-R;Guitare;For05;E1;2.0;R1;initial;1.0;11.215159999992466
sub-24;37;21;Distraction;D-R;Trompette;Mon09;E1;2.0;R1;initial;0.0;15.016535599992494
sub-24;37;22;Distraction;D-R;Moto;Nei01;E1;0.0;R1;initial;1.0;6.317677499988349
sub-24;37;23;Distraction;D-R;Table;Des02;E1;0.0;R1;initial;1.0;5.02477020000515
sub-24;37;24;Distraction;D-R;Clef;Mon13;E1;1.0;R1;initial;0.0;12.37758310000936
sub-24;37;25;Distraction;D-R;Citron;Esp05;E1;0.0;R1;initial;1.0;3.3258643000008306
sub-24;37;26;Rest;D-R;Sac;Urb08;E2;3.0;R2;initial;1.0;8.735524700008682
sub-24;37;27;Rest;D-R;Cheval;Mon14;E2;2.0;R2;initial;0.0;15.017251700002817
sub-24;37;28;Rest;D-R;Broccoli;Nei02;E2;1.0;R2;initial;0.0;15.005004299993743
sub-24;37;29;Rest;D-R;Bonnet;mars-04;E2;;R2;initial;1.0;4.005859199998668
sub-24;37;30;Rest;D-R;Carotte;For03;E2;2.0;R2;initial;1.0;6.728583699994488
sub-24;37;31;Rest;D-R;Dauphin;Esp03;E2;0.0;R2;initial;0.0;15.005504000000656
sub-24;37;32;Rest;D-R;Papillon;mars-01;E2;0.0;R2;initial;1.0;3.4323727000009967
sub-24;37;33;Rest;D-R;Chien;For06;E2;2.0;R2;initial;1.0;3.2428306999936467
sub-24;37;34;Rest;D-R;Chapeau;Esp02;E2;0.0;R2;initial;1.0;5.386554500000784
sub-24;37;35;Rest;D-R;Seau;Urb09;E2;3.0;R2;initial;1.0;3.876948300006916
sub-24;37;36;Rest;D-R;Cactus;Des05;E2;3.0;R2;initial;1.0;4.729066700005205
sub-24;37;37;Rest;D-R;Cerise;Eau04;E2;;R2;initial;1.0;15.016568300008656
sub-24;37;38;Rest;D-R;Fraise;Mon12;E2;2.0;R2;initial;1.0;15.00520939999842
sub-24;37;39;Rest;D-R;Elephant;Cam02;E2;0.0;R2;initial;1.0;2.6352714000095148
sub-24;37;40;Rest;D-R;Canard;Cam03;E2;2.0;R2;initial;1.0;5.505872599998838
sub-24;37;41;Rest;D-R;Velo;Mon03;E2;3.0;R2;initial;1.0;4.190292100000079
sub-24;37;42;Rest;D-R;Pain;Mon10;E2;3.0;R2;initial;0.0;15.001986000002944
sub-24;37;43;Rest;D-R;Girafe;Urb04;E2;0.0;R2;initial;1.0;6.655659999989439
sub-24;37;44;Rest;D-R;Voiture;Des03;E2;0.0;R2;initial;1.0;2.782507399999304
sub-24;37;45;Rest;D-R;Violon;Des04;E2;;R2;initial;1.0;4.32364509999752
sub-24;37;46;Rest;D-R;Lion;For04;E2;2.0;R2;initial;1.0;5.412016899994342
sub-24;37;47;Rest;D-R;Balai;Eau03;E2;0.0;R2;initial;1.0;3.448910400009481
sub-24;37;48;Rest;D-R;Prise;Mon02;E2;0.0;R2;initial;0.0;15.01305069999944
sub-24;37;49;Rest;D-R;Ciseaux;Urb02;E2;3.0;R2;initial;1.0;13.371878999998444
sub-24;37;50;Rest;D-R;Montre;Mon01;E2;1.0;R2;initial;1.0;3.0779575999913504
sub-24;37;10bis;Distraction;D-R;Tracteur;Eau02;E1;0.0;RF;final;0.0;15.014404699992156
sub-24;37;11bis;Distraction;D-R;Tasse;Urb03;E1;3.0;RF;final;1.0;2.9644738000060897
sub-24;37;12bis;Distraction;D-R;Pomme;mars-02;E1;1.0;RF;final;1.0;4.614026700000977
sub-24;37;13bis;Distraction;D-R;Ampoule;Mon05;E1;0.0;RF;final;0.0;15.001702399997155
sub-24;37;14bis;Distraction;D-R;Tortue;mars-03;E1;3.0;RF;final;1.0;3.2731997999944724
sub-24;37;15bis;Distraction;D-R;Crayon;Nei03;E1;2.0;RF;final;1.0;15.01453980000224
sub-24;37;16bis;Distraction;D-R;Pinceau;Mon07;E1;1.0;RF;final;1.0;6.8163698999997
sub-24;37;17bis;Distraction;D-R;Stylo;Urb01;E1;3.0;RF;final;1.0;2.139610400001402
sub-24;37;18bis;Distraction;D-R;Piano;Mon11;E1;0.0;RF;final;1.0;2.951071999996202
sub-24;37;19bis;Distraction;D-R;Casquette;For01;E1;1.0;RF;final;0.0;14.521335600002203
sub-24;37;1bis;Distraction;D-R;Rhinoceros;Des01;E1;2.0;RF;final;1.0;7.251130799995735
sub-24;37;20bis;Distraction;D-R;Guitare;For05;E1;2.0;RF;final;1.0;2.8841448000021046
sub-24;37;21bis;Distraction;D-R;Trompette;Mon09;E1;2.0;RF;final;0.0;12.438565500007826
sub-24;37;22bis;Distraction;D-R;Moto;Nei01;E1;0.0;RF;final;1.0;2.328062800006592
sub-24;37;23bis;Distraction;D-R;Table;Des02;E1;0.0;RF;final;0.0;14.952182399996673
sub-24;37;24bis;Distraction;D-R;Clef;Mon13;E1;1.0;RF;final;0.0;3.6165162999968734
sub-24;37;25bis;Distraction;D-R;Citron;Esp05;E1;0.0;RF;final;1.0;2.425861099996837
sub-24;37;26bis;Rest;D-R;Sac;Urb08;E2;3.0;RF;final;1.0;12.041708100005051
sub-24;37;27bis;Rest;D-R;Cheval;Mon14;E2;2.0;RF;final;1.0;4.982638499990571
sub-24;37;28bis;Rest;D-R;Broccoli;Nei02;E2;1.0;RF;final;0.0;8.674973999994108
sub-24;37;29bis;Rest;D-R;Bonnet;mars-04;E2;;RF;final;1.0;3.966984600003343
sub-24;37;2bis;Distraction;D-R;Marteau;Urb06;E1;3.0;RF;final;0.0;9.791867899999488
sub-24;37;30bis;Rest;D-R;Carotte;For03;E2;2.0;RF;final;1.0;4.4215201000042725
sub-24;37;31bis;Rest;D-R;Dauphin;Esp03;E2;0.0;RF;final;0.0;12.427926700009266
sub-24;37;32bis;Rest;D-R;Papillon;mars-01;E2;0.0;RF;final;1.0;6.225034700008109
sub-24;37;33bis;Rest;D-R;Chien;For06;E2;2.0;RF;final;1.0;1.920614699993166
sub-24;37;34bis;Rest;D-R;Chapeau;Esp02;E2;0.0;RF;final;1.0;2.9782696000038413
sub-24;37;35bis;Rest;D-R;Seau;Urb09;E2;3.0;RF;final;1.0;7.615954299995792
sub-24;37;36bis;Rest;D-R;Cactus;Des05;E2;3.0;RF;final;1.0;2.4660010999941733
sub-24;37;37bis;Rest;D-R;Cerise;Eau04;E2;;RF;final;1.0;7.58131370000774
sub-24;37;38bis;Rest;D-R;Fraise;Mon12;E2;2.0;RF;final;1.0;9.018810900000972
sub-24;37;39bis;Rest;D-R;Elephant;Cam02;E2;0.0;RF;final;1.0;5.845802399999229
sub-24;37;3bis;Distraction;D-R;Fromage;Urb11;E1;3.0;RF;final;1.0;2.871407900005579
sub-24;37;40bis;Rest;D-R;Canard;Cam03;E2;2.0;RF;final;1.0;6.517976000002818
sub-24;37;41bis;Rest;D-R;Velo;Mon03;E2;3.0;RF;final;1.0;2.1171536999900127
sub-24;37;42bis;Rest;D-R;Pain;Mon10;E2;3.0;RF;final;0.0;15.004594300000464
sub-24;37;43bis;Rest;D-R;Girafe;Urb04;E2;0.0;RF;final;1.0;3.78469000000041
sub-24;37;44bis;Rest;D-R;Voiture;Des03;E2;0.0;RF;final;1.0;2.5644712000066647
sub-24;37;45bis;Rest;D-R;Violon;Des04;E2;;RF;final;1.0;2.2124485000094865
sub-24;37;46bis;Rest;D-R;Lion;For04;E2;2.0;RF;final;1.0;3.981281500004116
sub-24;37;47bis;Rest;D-R;Balai;Eau03;E2;0.0;RF;final;1.0;7.241631400000188
sub-24;37;48bis;Rest;D-R;Prise;Mon02;E2;0.0;RF;final;0.0;15.022687500008033
sub-24;37;49bis;Rest;D-R;Ciseaux;Urb02;E2;3.0;RF;final;1.0;3.025658700003987
sub-24;37;4bis;Distraction;D-R;Bougie;Eau06;E1;1.0;RF;final;1.0;4.731651399997645
sub-24;37;50bis;Rest;D-R;Montre;Mon01;E2;1.0;RF;final;1.0;2.88370780000696
sub-24;37;5bis;Distraction;D-R;Fourchette;Urb07;E1;3.0;RF;final;1.0;10.375987199993688
sub-24;37;6bis;Distraction;D-R;Chat;Mon04;E1;2.0;RF;final;1.0;2.412091000005603
sub-24;37;7bis;Distraction;D-R;Tournevis;Mon06;E1;2.0;RF;final;0.0;5.350490299999365
sub-24;37;8bis;Distraction;D-R;Lunettes;Urb10;E1;3.0;RF;final;1.0;5.808508399990387
sub-24;37;9bis;Distraction;D-R;Poire;Eau05;E1;2.0;RF;final;0.0;14.501092099992093
sub-25;23;1;Rest;R-D;Montre;Urb04;E1;2.0;R1;initial;1.0;2.3683170000149403
sub-25;23;2;Rest;R-D;Rhinoceros;Mon05;E1;0.0;R1;initial;0.0;7.194594400003552
sub-25;23;3;Rest;R-D;Poire;mars-03;E1;0.0;R1;initial;1.0;4.2303826000134
sub-25;23;4;Rest;R-D;Elephant;For05;E1;1.0;R1;initial;1.0;3.8198354999767616
sub-25;23;5;Rest;R-D;Lion;mars-02;E1;0.0;R1;initial;1.0;2.429261299985228
sub-25;23;6;Rest;R-D;Cheval;Des01;E1;2.0;R1;initial;1.0;2.8038130000059027
sub-25;23;7;Rest;R-D;Chat;Eau04;E1;3.0;R1;initial;1.0;2.27054309999221
sub-25;23;8;Rest;R-D;Table;mars-04;E1;0.0;R1;initial;1.0;1.7783993000048213
sub-25;23;9;Rest;R-D;Prise;Mon14;E1;0.0;R1;initial;0.0;2.1864563999988604
sub-25;23;10;Rest;R-D;Trompette;Eau06;E1;0.0;R1;initial;1.0;2.757696400018176
sub-25;23;11;Rest;R-D;Marteau;Mon09;E1;0.0;R1;initial;1.0;3.4354622999962885
sub-25;23;12;Rest;R-D;Lunettes;Urb07;E1;2.0;R1;initial;1.0;3.3155261000210885
sub-25;23;13;Rest;R-D;Dauphin;Urb06;E1;0.0;R1;initial;1.0;4.367774599988479
sub-25;23;14;Rest;R-D;Carotte;Mon03;E1;1.0;R1;initial;1.0;3.88489670000854
sub-25;23;15;Rest;R-D;Guitare;For06;E1;2.0;R1;initial;1.0;3.836688099981984
sub-25;23;16;Rest;R-D;Balai;Urb03;E1;2.0;R1;initial;1.0;2.422623099992052
sub-25;23;17;Rest;R-D;Papillon;Esp02;E1;0.0;R1;initial;1.0;6.788808299985249
sub-25;23;18;Rest;R-D;Pomme;Mon02;E1;1.0;R1;initial;1.0;2.4227267999958717
sub-25;23;19;Rest;R-D;Ciseaux;For04;E1;0.0;R1;initial;1.0;3.603251399996225
sub-25;23;20;Rest;R-D;Crayon;Nei02;E1;0.0;R1;initial;1.0;3.591497099987464
sub-25;23;21;Rest;R-D;Bougie;Nei01;E1;0.0;R1;initial;1.0;2.228538399998797
sub-25;23;22;Rest;R-D;Tournevis;For03;E1;0.0;R1;initial;1.0;3.310897399991518
sub-25;23;23;Rest;R-D;Canard;Urb08;E1;1.0;R1;initial;1.0;2.676236200000858
sub-25;23;24;Rest;R-D;Fromage;Urb10;E1;0.0;R1;initial;1.0;5.439385100005893
sub-25;23;25;Rest;R-D;Cerise;Urb09;E1;1.0;R1;initial;1.0;2.823588900006144
sub-25;23;26;Distraction;R-D;Piano;Esp03;E2;1.0;R2;initial;1.0;2.5121932000038214
sub-25;23;27;Distraction;R-D;Bonnet;Cam03;E2;2.0;R2;initial;1.0;2.127973199996632
sub-25;23;28;Distraction;R-D;Citron;Des02;E2;1.0;R2;initial;0.0;3.2677066000178456
sub-25;23;29;Distraction;R-D;Broccoli;Nei03;E2;0.0;R2;initial;0.0;7.323040100018261
sub-25;23;30;Distraction;R-D;Cactus;Esp05;E2;0.0;R2;initial;1.0;3.483612500014715
sub-25;23;31;Distraction;R-D;Tasse;Urb01;E2;2.0;R2;initial;1.0;2.358619300008286
sub-25;23;32;Distraction;R-D;Fourchette;Mon12;E2;1.0;R2;initial;1.0;3.619713899999624
sub-25;23;33;Distraction;R-D;Ampoule;Eau02;E2;0.0;R2;initial;0.0;2.3187134999898262
sub-25;23;34;Distraction;R-D;Stylo;Mon11;E2;1.0;R2;initial;1.0;1.46161560001201
sub-25;23;35;Distraction;R-D;Violon;Eau05;E2;0.0;R2;initial;1.0;7.127438499999698
sub-25;23;36;Distraction;R-D;Chapeau;Cam02;E2;0.0;R2;initial;1.0;2.090764599997783
sub-25;23;37;Distraction;R-D;Casquette;Eau03;E2;2.0;R2;initial;0.0;4.301283400011016
sub-25;23;38;Distraction;R-D;Fraise;Mon01;E2;2.0;R2;initial;1.0;2.4430004000023477
sub-25;23;39;Distraction;R-D;Velo;Des03;E2;1.0;R2;initial;1.0;1.795029399974737
sub-25;23;40;Distraction;R-D;Moto;Mon04;E2;0.0;R2;initial;1.0;1.4182682000100613
sub-25;23;41;Distraction;R-D;Pain;Des05;E2;1.0;R2;initial;1.0;2.1612514999869745
sub-25;23;42;Distraction;R-D;Clef;Des04;E2;0.0;R2;initial;1.0;2.187202300003264
sub-25;23;43;Distraction;R-D;Sac;Mon13;E2;0.0;R2;initial;1.0;2.439051900000777
sub-25;23;44;Distraction;R-D;Voiture;Mon10;E2;0.0;R2;initial;1.0;1.90514390001772
sub-25;23;45;Distraction;R-D;Girafe;Mon07;E2;1.0;R2;initial;1.0;2.535192100011045
sub-25;23;46;Distraction;R-D;Tracteur;Mon06;E2;0.0;R2;initial;1.0;2.8004709999950137
sub-25;23;47;Distraction;R-D;Seau;Urb11;E2;2.0;R2;initial;1.0;2.1227501000103075
sub-25;23;48;Distraction;R-D;Chien;For01;E2;1.0;R2;initial;1.0;1.7347116000019014
sub-25;23;49;Distraction;R-D;Tortue;Urb02;E2;1.0;R2;initial;1.0;2.345151399989845
sub-25;23;50;Distraction;R-D;Pinceau;mars-01;E2;0.0;R2;initial;1.0;2.4228280000097584
sub-25;23;10bis;Rest;R-D;Trompette;Eau06;E1;0.0;RF;final;1.0;2.768805500003509
sub-25;23;11bis;Rest;R-D;Marteau;Mon09;E1;0.0;RF;final;1.0;2.2837474000116345
sub-25;23;12bis;Rest;R-D;Lunettes;Urb07;E1;2.0;RF;final;1.0;3.0248543999914546
sub-25;23;13bis;Rest;R-D;Dauphin;Urb06;E1;0.0;RF;final;1.0;2.616717199998675
sub-25;23;14bis;Rest;R-D;Carotte;Mon03;E1;1.0;RF;final;1.0;5.090706899994984
sub-25;23;15bis;Rest;R-D;Guitare;For06;E1;2.0;RF;final;1.0;3.0621923999860883
sub-25;23;16bis;Rest;R-D;Balai;Urb03;E1;2.0;RF;final;1.0;2.152655900019454
sub-25;23;17bis;Rest;R-D;Papillon;Esp02;E1;0.0;RF;final;1.0;3.007988500001374
sub-25;23;18bis;Rest;R-D;Pomme;Mon02;E1;1.0;RF;final;1.0;1.608226500015007
sub-25;23;19bis;Rest;R-D;Ciseaux;For04;E1;0.0;RF;final;1.0;2.629653100011637
sub-25;23;1bis;Rest;R-D;Montre;Urb04;E1;2.0;RF;final;1.0;2.3983220999944024
sub-25;23;20bis;Rest;R-D;Crayon;Nei02;E1;0.0;RF;final;1.0;1.7508411000017077
sub-25;23;21bis;Rest;R-D;Bougie;Nei01;E1;0.0;RF;final;1.0;2.514039200003026
sub-25;23;22bis;Rest;R-D;Tournevis;For03;E1;0.0;RF;final;0.0;1.5029806999955326
sub-25;23;23bis;Rest;R-D;Canard;Urb08;E1;1.0;RF;final;1.0;2.051452400017297
sub-25;23;24bis;Rest;R-D;Fromage;Urb10;E1;0.0;RF;final;1.0;3.1640144000120927
sub-25;23;25bis;Rest;R-D;Cerise;Urb09;E1;1.0;RF;final;1.0;5.038837000000058
sub-25;23;26bis;Distraction;R-D;Piano;Esp03;E2;1.0;RF;final;1.0;1.6922400000039488
sub-25;23;27bis;Distraction;R-D;Bonnet;Cam03;E2;2.0;RF;final;1.0;2.4549145000055432
sub-25;23;28bis;Distraction;R-D;Citron;Des02;E2;1.0;RF;final;0.0;1.2067699000181165
sub-25;23;29bis;Distraction;R-D;Broccoli;Nei03;E2;0.0;RF;final;0.0;7.4595069999923
sub-25;23;2bis;Rest;R-D;Rhinoceros;Mon05;E1;0.0;RF;final;0.0;2.480502799997339
sub-25;23;30bis;Distraction;R-D;Cactus;Esp05;E2;0.0;RF;final;1.0;2.0423476999858394
sub-25;23;31bis;Distraction;R-D;Tasse;Urb01;E2;2.0;RF;final;1.0;2.1751303000201005
sub-25;23;32bis;Distraction;R-D;Fourchette;Mon12;E2;1.0;RF;final;1.0;2.9458283999993
sub-25;23;33bis;Distraction;R-D;Ampoule;Eau02;E2;0.0;RF;final;0.0;1.3420007999811787
sub-25;23;34bis;Distraction;R-D;Stylo;Mon11;E2;1.0;RF;final;1.0;2.911701400007587
sub-25;23;35bis;Distraction;R-D;Violon;Eau05;E2;0.0;RF;final;1.0;1.8981976000068244
sub-25;23;36bis;Distraction;R-D;Chapeau;Cam02;E2;0.0;RF;final;1.0;2.2054552999907173
sub-25;23;37bis;Distraction;R-D;Casquette;Eau03;E2;2.0;RF;final;0.0;2.198886300000595
sub-25;23;38bis;Distraction;R-D;Fraise;Mon01;E2;2.0;RF;final;1.0;2.136471500009065
sub-25;23;39bis;Distraction;R-D;Velo;Des03;E2;1.0;RF;final;1.0;1.3138587000139523
sub-25;23;3bis;Rest;R-D;Poire;mars-03;E1;0.0;RF;final;0.0;2.7420744999835733
sub-25;23;40bis;Distraction;R-D;Moto;Mon04;E2;0.0;RF;final;1.0;1.573489000002155
sub-25;23;41bis;Distraction;R-D;Pain;Des05;E2;1.0;RF;final;1.0;1.948894700006349
sub-25;23;42bis;Distraction;R-D;Clef;Des04;E2;0.0;RF;final;1.0;2.2937110000057146
sub-25;23;43bis;Distraction;R-D;Sac;Mon13;E2;0.0;RF;final;1.0;2.7493472000060137
sub-25;23;44bis;Distraction;R-D;Voiture;Mon10;E2;0.0;RF;final;1.0;2.1164117999724112
sub-25;23;45bis;Distraction;R-D;Girafe;Mon07;E2;1.0;RF;final;1.0;2.1469851000001654
sub-25;23;46bis;Distraction;R-D;Tracteur;Mon06;E2;0.0;RF;final;0.0;2.067900699999882
sub-25;23;47bis;Distraction;R-D;Seau;Urb11;E2;2.0;RF;final;1.0;2.3533784999744967
sub-25;23;48bis;Distraction;R-D;Chien;For01;E2;1.0;RF;final;1.0;1.8542216999921948
sub-25;23;49bis;Distraction;R-D;Tortue;Urb02;E2;1.0;RF;final;1.0;1.8889726999914276
sub-25;23;4bis;Rest;R-D;Elephant;For05;E1;1.0;RF;final;1.0;2.4775705999927595
sub-25;23;50bis;Distraction;R-D;Pinceau;mars-01;E2;0.0;RF;final;1.0;2.37412089999998
sub-25;23;5bis;Rest;R-D;Lion;mars-02;E1;0.0;RF;final;0.0;5.004923599975882
sub-25;23;6bis;Rest;R-D;Cheval;Des01;E1;2.0;RF;final;1.0;2.524728399992455
sub-25;23;7bis;Rest;R-D;Chat;Eau04;E1;3.0;RF;final;1.0;1.5722815000044648
sub-25;23;8bis;Rest;R-D;Table;mars-04;E1;0.0;RF;final;1.0;1.9577361000119708
sub-25;23;9bis;Rest;R-D;Prise;Mon14;E1;0.0;RF;final;0.0;3.0719279999902938
sub-26;23;1;Rest;R-D;Balai;Mon03;E1;0.0;R1;initial;0.0;15.004293499980122
sub-26;23;2;Rest;R-D;Fraise;Mon11;E1;2.0;R1;initial;1.0;3.377819700050168
sub-26;23;3;Rest;R-D;Cerise;Mon05;E1;1.0;R1;initial;1.0;6.944313600019086
sub-26;23;4;Rest;R-D;Trompette;Eau02;E1;0.0;R1;initial;1.0;5.646043599990662
sub-26;23;5;Rest;R-D;Cheval;Esp05;E1;0.0;R1;initial;1.0;4.351001199975144
sub-26;23;6;Rest;R-D;Dauphin;Mon10;E1;0.0;R1;initial;0.0;11.80928839999251
sub-26;23;7;Rest;R-D;Girafe;mars-03;E1;1.0;R1;initial;1.0;8.192486000014469
sub-26;23;8;Rest;R-D;Stylo;Mon01;E1;2.0;R1;initial;0.0;4.68697850004537
sub-26;23;9;Rest;R-D;Chat;Des01;E1;1.0;R1;initial;1.0;3.207808799983468
sub-26;23;10;Rest;R-D;Ampoule;Mon14;E1;0.0;R1;initial;0.0;13.68953119998332
sub-26;23;11;Rest;R-D;Moto;Cam03;E1;2.0;R1;initial;1.0;6.391669000033289
sub-26;23;12;Rest;R-D;Sac;Urb01;E1;3.0;R1;initial;1.0;2.1768493000417948
sub-26;23;13;Rest;R-D;Chapeau;Mon06;E1;1.0;R1;initial;1.0;12.273735099995974
sub-26;23;14;Rest;R-D;Rhinoceros;Urb07;E1;0.0;R1;initial;1.0;7.909547200019006
sub-26;23;15;Rest;R-D;Poire;Cam02;E1;0.0;R1;initial;1.0;6.951659400016069
sub-26;23;16;Rest;R-D;Bougie;Des04;E1;3.0;R1;initial;1.0;4.4909104000544176
sub-26;23;17;Rest;R-D;Pinceau;Urb02;E1;3.0;R1;initial;1.0;5.933516999997664
sub-26;23;18;Rest;R-D;Seau;For01;E1;3.0;R1;initial;0.0;15.01236200000858
sub-26;23;19;Rest;R-D;Ciseaux;Eau03;E1;0.0;R1;initial;1.0;4.547747500007972
sub-26;23;20;Rest;R-D;Crayon;Urb09;E1;1.0;R1;initial;1.0;4.855427399976179
sub-26;23;21;Rest;R-D;Chien;mars-02;E1;0.0;R1;initial;1.0;3.879373100004159
sub-26;23;22;Rest;R-D;Broccoli;Urb11;E1;1.0;R1;initial;1.0;6.868221400014591
sub-26;23;23;Rest;R-D;Voiture;Eau05;E1;0.0;R1;initial;1.0;4.103355299972463
sub-26;23;24;Rest;R-D;Papillon;Urb06;E1;3.0;R1;initial;1.0;5.29772110003978
sub-26;23;25;Rest;R-D;Cactus;mars-01;E1;0.0;R1;initial;1.0;4.006635500001721
sub-26;23;26;Distraction;R-D;Canard;Mon07;E2;1.0;R2;initial;1.0;8.751396799983922
sub-26;23;27;Distraction;R-D;Lunettes;Mon09;E2;;R2;initial;1.0;6.1645810000482015
sub-26;23;28;Distraction;R-D;Table;Urb04;E2;3.0;R2;initial;1.0;5.332494399975985
sub-26;23;29;Distraction;R-D;Velo;Nei02;E2;0.0;R2;initial;1.0;3.917826600023545
sub-26;23;30;Distraction;R-D;Bonnet;Des02;E2;0.0;R2;initial;1.0;5.444810800021514
sub-26;23;31;Distraction;R-D;Clef;For05;E2;0.0;R2;initial;1.0;9.100683099997696
sub-26;23;32;Distraction;R-D;Tortue;Urb03;E2;0.0;R2;initial;1.0;6.208131599996705
sub-26;23;33;Distraction;R-D;Tracteur;Eau06;E2;2.0;R2;initial;1.0;5.463396399980411
sub-26;23;34;Distraction;R-D;Fromage;For04;E2;1.0;R2;initial;0.0;6.870724899985362
sub-26;23;35;Distraction;R-D;Tournevis;Esp03;E2;1.0;R2;initial;1.0;7.64891789999092
sub-26;23;36;Distraction;R-D;Prise;Des05;E2;0.0;R2;initial;0.0;8.622455200005788
sub-26;23;37;Distraction;R-D;Guitare;Eau04;E2;2.0;R2;initial;1.0;9.273098999983633
sub-26;23;38;Distraction;R-D;Lion;Urb10;E2;1.0;R2;initial;1.0;7.156378299987409
sub-26;23;39;Distraction;R-D;Pomme;Des03;E2;1.0;R2;initial;0.0;4.305302899971139
sub-26;23;40;Distraction;R-D;Citron;Esp02;E2;0.0;R2;initial;1.0;3.433958000037819
sub-26;23;41;Distraction;R-D;Carotte;Mon12;E2;3.0;R2;initial;0.0;15.004385200038088
sub-26;23;42;Distraction;R-D;Violon;Mon13;E2;0.0;R2;initial;1.0;4.054981600027531
sub-26;23;43;Distraction;R-D;Elephant;For03;E2;1.0;R2;initial;0.0;8.421040999994148
sub-26;23;44;Distraction;R-D;Fourchette;Mon02;E2;1.0;R2;initial;1.0;5.079887500032783
sub-26;23;45;Distraction;R-D;Pain;Nei03;E2;0.0;R2;initial;0.0;6.495902400056366
sub-26;23;46;Distraction;R-D;Tasse;mars-04;E2;0.0;R2;initial;1.0;6.093379400030244
sub-26;23;47;Distraction;R-D;Marteau;For06;E2;0.0;R2;initial;0.0;7.525841199967544
sub-26;23;48;Distraction;R-D;Montre;Urb08;E2;3.0;R2;initial;1.0;6.391436999954749
sub-26;23;49;Distraction;R-D;Piano;Nei01;E2;0.0;R2;initial;1.0;3.625629500020296
sub-26;23;50;Distraction;R-D;Casquette;Mon04;E2;2.0;R2;initial;1.0;13.960881000035442
sub-26;23;10bis;Rest;R-D;Ampoule;Mon14;E1;0.0;RF;final;0.0;15.01586970000062
sub-26;23;11bis;Rest;R-D;Moto;Cam03;E1;2.0;RF;final;1.0;5.638503399968613
sub-26;23;12bis;Rest;R-D;Sac;Urb01;E1;3.0;RF;final;1.0;4.118238699971698
sub-26;23;13bis;Rest;R-D;Chapeau;Mon06;E1;1.0;RF;final;0.0;8.155797999992501
sub-26;23;14bis;Rest;R-D;Rhinoceros;Urb07;E1;0.0;RF;final;1.0;9.298502999998163
sub-26;23;15bis;Rest;R-D;Poire;Cam02;E1;0.0;RF;final;1.0;3.4790856000036
sub-26;23;16bis;Rest;R-D;Bougie;Des04;E1;3.0;RF;final;1.0;4.772383900010027
sub-26;23;17bis;Rest;R-D;Pinceau;Urb02;E1;3.0;RF;final;1.0;6.051327199966181
sub-26;23;18bis;Rest;R-D;Seau;For01;E1;3.0;RF;final;0.0;4.303959799988661
sub-26;23;19bis;Rest;R-D;Ciseaux;Eau03;E1;0.0;RF;final;1.0;5.678301299980376
sub-26;23;1bis;Rest;R-D;Balai;Mon03;E1;0.0;RF;final;0.0;15.01430400001118
sub-26;23;20bis;Rest;R-D;Crayon;Urb09;E1;1.0;RF;final;0.0;3.435730100027285
sub-26;23;21bis;Rest;R-D;Chien;mars-02;E1;0.0;RF;final;1.0;5.05121520004468
sub-26;23;22bis;Rest;R-D;Broccoli;Urb11;E1;1.0;RF;final;1.0;4.264267500024289
sub-26;23;23bis;Rest;R-D;Voiture;Eau05;E1;0.0;RF;final;1.0;4.347820300026797
sub-26;23;24bis;Rest;R-D;Papillon;Urb06;E1;3.0;RF;final;1.0;5.054195100034121
sub-26;23;25bis;Rest;R-D;Cactus;mars-01;E1;0.0;RF;final;0.0;3.679470499977469
sub-26;23;26bis;Distraction;R-D;Canard;Mon07;E2;1.0;RF;final;0.0;15.01422030001413
